Time,header.stamp.secs,header.stamp.nsecs,angular_velocity.x,angular_velocity.y,angular_velocity.z,linear_acceleration.x,linear_acceleration.y,linear_acceleration.z,Time,header.seq,header.stamp.secs,header.stamp.nsecs,header.frame_id,pose.position.x,pose.position.y,pose.position.z,pose.orientation.x,pose.orientation.y,pose.orientation.z,pose.orientation.w
1719786225,1719786224,546980066,-0.002130529,-0.001065264,0,0.225053809,0,9.825753516,1719786225,2010,1719786224,585231000,world,-2.074287479,-1.915745824,0.136575758,0.013136141,-0.010080004,-0.004671813,0.999851994
1719786225,1719786224,554447646,0,-0.003195793,0.001065264,0.225053809,0.004788379,9.830541895,1719786225,2011,1719786224,594781000,world,-2.07428846,-1.915730149,0.136555898,0.013130683,-0.010090281,-0.004700069,0.999851829
1719786225,1719786224,561972761,0,0.001065264,-0.003195793,0.215477051,0.004788379,9.820965137,1719786225,2012,1719786224,604701000,world,-2.074286967,-1.915744495,0.136567235,0.013158704,-0.010061769,-0.004688381,0.999851803
1719786225,1719786224,576962545,-0.001065264,-0.002130529,-0.001065264,0.215477051,-0.004788379,9.816176758,1719786225,2013,1719786224,614382000,world,-2.074297438,-1.915767541,0.136567654,0.013174051,-0.010110589,-0.004694946,0.999851078
1719786225,1719786224,584484620,-0.002130529,0.001065264,-0.003195793,0.225053809,0.004788379,9.820965137,1719786225,2014,1719786224,624734000,world,-2.074300552,-1.915789303,0.136569023,0.013133222,-0.010160556,-0.004655094,0.999851295
1719786225,1719786224,591972904,0,0.001065264,-0.002130529,0.229842188,0.014365137,9.825753516,1719786225,2015,1719786224,634924000,world,-2.074290585,-1.915760649,0.136570337,0.013141698,-0.010153329,-0.004678526,0.999851147
1719786225,1719786224,599478883,0.001065264,0.002130529,0.001065264,0.244207324,0.014365137,9.825753516,1719786225,2016,1719786224,644685000,world,-2.074297622,-1.915750421,0.136571935,0.013165881,-0.010139189,-0.004685417,0.999850941
1719786225,1719786224,607022143,-0.002130529,-0.003195793,-0.001065264,0.229842188,-0.004788379,9.820965137,1719786225,2017,1719786224,654441000,world,-2.074301485,-1.915765114,0.136570986,0.013193591,-0.010105162,-0.004692661,0.999850886
1719786225,1719786224,619555330,0.001065264,-0.004261058,-0.003195793,0.225053809,0.009576758,9.820965137,1719786225,2018,1719786224,664249000,world,-2.074299143,-1.915784299,0.136574942,0.013187226,-0.010117411,-0.004711681,0.999850756
1719786225,1719786224,622010486,0.001065264,-0.002130529,-0.001065264,0.225053809,0.014365137,9.830541895,1719786225,2019,1719786224,675173000,world,-2.074305696,-1.915836038,0.136595203,0.013140067,-0.010158496,-0.004687119,0.999851076
1719786225,1719786224,629445234,0,-0.001065264,0.001065264,0.229842188,0.014365137,9.835330273,1719786225,2020,1719786224,684436000,world,-2.07429945,-1.915841479,0.136599502,0.013149721,-0.010144705,-0.004692091,0.999851066
1719786225,1719786224,637044333,0,0,0.001065264,0.239418945,0.004788379,9.820965137,1719786225,2021,1719786224,694373000,world,-2.074305104,-1.915802189,0.136575293,0.013145326,-0.010137656,-0.004709912,0.999851111
1719786225,1719786224,644458345,0.001065264,-0.002130529,-0.001065264,0.239418945,0.004788379,9.816176758,1719786225,2022,1719786224,704376000,world,-2.074295402,-1.915772678,0.136565872,0.013177007,-0.010081116,-0.004692657,0.999851347
1719786225,1719786224,651968645,-0.003195793,-0.001065264,0,0.229842188,0.004788379,9.820965137,1719786225,2023,1719786224,715038000,world,-2.074291158,-1.915784231,0.136560241,0.013155897,-0.01007936,-0.004690446,0.999851653
1719786225,1719786224,659461857,0,0,-0.001065264,0.244207324,0.004788379,9.830541895,1719786225,2024,1719786224,725280000,world,-2.074298511,-1.915807992,0.136550073,0.013166632,-0.010101873,-0.004676578,0.99985135
1719786225,1719786224,666967836,-0.001065264,-0.001065264,-0.002130529,0.248995703,-0.004788379,9.820965137,1719786225,2025,1719786224,734380000,world,-2.074293648,-1.915814611,0.13656385,0.013134314,-0.010145566,-0.004657454,0.999851422
1719786225,1719786224,674429304,0.001065264,0.001065264,0.002130529,0.229842188,0,9.811388379,1719786225,2026,1719786224,744165000,world,-2.074281528,-1.915787405,0.136600049,0.013138043,-0.010109477,-0.004704345,0.999851519
1719786225,1719786224,681981011,-0.002130529,0,-0.001065264,0.234630566,0.009576758,9.816176758,1719786225,2027,1719786224,754362000,world,-2.074282812,-1.915755838,0.136591463,0.013119637,-0.010091055,-0.004701388,0.99985196
1719786225,1719786224,689466895,-0.001065264,-0.003195793,0,0.234630566,0.004788379,9.820965137,1719786225,2028,1719786224,764253000,world,-2.074281295,-1.915770927,0.136574996,0.01314314,-0.010091638,-0.004713279,0.99985159
1719786225,1719786224,696995178,0.002130529,0,-0.001065264,0.225053809,0,9.825753516,1719786225,2029,1719786224,774953000,world,-2.074282978,-1.915795895,0.13656975,0.013135792,-0.010134591,-0.004689741,0.999851363
1719786225,1719786224,704453542,0.001065264,0,-0.001065264,0.22026543,0.004788379,9.825753516,1719786225,2030,1719786224,784310000,world,-2.074277631,-1.915807389,0.136569232,0.013160507,-0.010147364,-0.004679651,0.999850955
1719786225,1719786224,711962818,0.001065264,-0.001065264,0,0.229842188,0.009576758,9.825753516,1719786225,2031,1719786224,794622000,world,-2.07428062,-1.915771471,0.136565,0.013156547,-0.010141113,-0.004705541,0.999850949
1719786225,1719786224,719451646,0.001065264,-0.002130529,-0.002130529,0.229842188,0.009576758,9.825753516,1719786225,2032,1719786224,808619000,world,-2.074281972,-1.915747472,0.136590165,0.013153147,-0.010092937,-0.004714654,0.999851439
1719786225,1719786224,727035129,-0.001065264,0,-0.001065264,0.22026543,0.014365137,9.820965137,1719786225,2033,1719786224,817991000,world,-2.074280251,-1.915758238,0.136607407,0.013142354,-0.010080177,-0.004711338,0.999851725
1719786225,1719786224,734593908,0.001065264,0,-0.003195793,0.215477051,0.004788379,9.816176758,1719786225,2034,1719786224,825762000,world,-2.074285379,-1.915772744,0.13658625,0.013146154,-0.010104585,-0.004700568,0.999851479
1719786225,1719786224,742010192,0,-0.004261058,-0.002130529,0.225053809,0.004788379,9.8066,1719786225,2035,1719786224,834841000,world,-2.074287911,-1.915787958,0.136570599,0.013173992,-0.010121638,-0.004715618,0.99985087
1719786225,1719786224,749585451,0.001065264,-0.002130529,0.004261058,0.229842188,0.009576758,9.816176758,1719786225,2036,1719786224,845005000,world,-2.074281086,-1.915780196,0.136569124,0.013159347,-0.010155445,-0.004694579,0.999850819
1719786225,1719786224,756988775,0.002130529,-0.001065264,-0.002130529,0.229842188,0.004788379,9.830541895,1719786225,2037,1719786224,854796000,world,-2.074285302,-1.915786051,0.136569357,0.013174656,-0.010103776,-0.004692953,0.999851148
1719786225,1719786224,764453251,-0.001065264,-0.001065264,-0.001065264,0.225053809,0.009576758,9.830541895,1719786225,2038,1719786224,863818000,world,-2.074274776,-1.915744763,0.136568247,0.013136215,-0.010085646,-0.004707387,0.999851769
1719786225,1719786224,771971007,-0.001065264,0,0,0.225053809,0.009576758,9.811388379,1719786225,2039,1719786224,876409000,world,-2.07426829,-1.915740353,0.136570563,0.013131665,-0.010090601,-0.004723704,0.999851702
1719786225,1719786224,779443899,0,-0.001065264,0.001065264,0.225053809,0.004788379,9.816176758,1719786225,2040,1719786224,884449000,world,-2.074275438,-1.915763848,0.136553741,0.013145408,-0.010109982,-0.004696411,0.999851454
1719786225,1719786224,787115509,-0.002130529,-0.001065264,-0.002130529,0.225053809,0.014365137,9.816176758,1719786225,2041,1719786224,894860000,world,-2.074277077,-1.91576406,0.136562991,0.013149698,-0.010130507,-0.004713525,0.999851109
1719786225,1719786224,794461138,0,-0.002130529,0,0.234630566,0.014365137,9.835330273,1719786225,2042,1719786224,904900000,world,-2.074276016,-1.915763043,0.136579886,0.013142018,-0.010142007,-0.004712639,0.999851098
1719786225,1719786224,801971245,-0.003195793,0.001065264,-0.002130529,0.234630566,0.014365137,9.825753516,1719786225,2043,1719786224,914355000,world,-2.0742763,-1.915750029,0.136585387,0.013120265,-0.010102624,-0.004703981,0.999851823
1719786225,1719786224,811992413,0.002130529,-0.001065264,0.002130529,0.229842188,0.009576758,9.820965137,1719786225,2044,1719786224,925631000,world,-2.07427862,-1.915736462,0.136580264,0.013164031,-0.010070614,-0.004721104,0.99985149
1719786225,1719786224,817079108,0,-0.002130529,-0.002130529,0.229842188,0.019153516,9.811388379,1719786225,2045,1719786224,934484000,world,-2.074278544,-1.915747588,0.136561652,0.01314899,-0.010067315,-0.004708962,0.999851778
1719786225,1719786224,824457472,-0.002130529,0,-0.003195793,0.225053809,0.023941895,9.811388379,1719786225,2046,1719786224,944028000,world,-2.074282609,-1.915779114,0.136554083,0.013152406,-0.010117972,-0.004683099,0.999851344
1719786225,1719786224,831984732,-0.001065264,-0.001065264,-0.002130529,0.22026543,0.014365137,9.830541895,1719786225,2047,1719786224,954505000,world,-2.074283592,-1.915782605,0.136564507,0.013125785,-0.010135683,-0.004683111,0.999851514
1719786225,1719786224,839429880,-0.002130529,-0.003195793,-0.001065264,0.229842188,0.014365137,9.825753516,1719786225,2048,1719786224,964246000,world,-2.074288297,-1.915758998,0.136572033,0.013150349,-0.010090968,-0.00468796,0.999851621
1719786225,1719786224,846958035,-0.001065264,0,-0.002130529,0.234630566,0.009576758,9.811388379,1719786225,2049,1719786224,975779000,world,-2.074275728,-1.915751198,0.136597203,0.013117301,-0.010063287,-0.004727547,0.999852148
1719786225,1719786224,854438255,0.002130529,0,-0.001065264,0.22026543,0.009576758,9.816176758,1719786225,2050,1719786224,984927000,world,-2.07427522,-1.915766035,0.136593909,0.013127577,-0.010088698,-0.004687734,0.999851944
1719786225,1719786224,861959978,0,-0.001065264,0,0.225053809,0.009576758,9.816176758,1719786225,2051,1719786224,994866000,world,-2.074274609,-1.915781554,0.1365688,0.013109279,-0.010143164,-0.004692502,0.999851611
1719786225,1719786224,869432358,0,-0.002130529,-0.002130529,0.215477051,0.004788379,9.816176758,1719786225,2052,1719786225,4560000,world,-2.074288954,-1.915790543,0.136571533,0.013103159,-0.010141409,-0.004690504,0.999851718
1719786225,1719786224,877005665,0,-0.001065264,0,0.22026543,0.004788379,9.811388379,1719786225,2053,1719786225,14514000,world,-2.074283091,-1.915772784,0.136580641,0.01310581,-0.010144684,-0.004712252,0.999851548
1719786225,1719786224,884444765,-0.001065264,0.001065264,-0.003195793,0.234630566,0.009576758,9.820965137,1719786225,2054,1719786225,25053000,world,-2.074270594,-1.915744235,0.136560717,0.013112318,-0.010076023,-0.004697101,0.999852228
1719786225,1719786224,891949945,0.002130529,0.003195793,0,0.234630566,0.004788379,9.816176758,1719786225,2055,1719786225,35352000,world,-2.07427925,-1.915734129,0.136560937,0.013110846,-0.0100973,-0.004721861,0.999851916
1719786225,1719786224,899426581,-0.001065264,-0.002130529,-0.006391587,0.234630566,0.004788379,9.820965137,1719786225,2056,1719786225,44272000,world,-2.074282996,-1.915764242,0.136571851,0.013138341,-0.010111722,-0.004690018,0.999851559
1719786225,1719786224,906975536,-0.001065264,-0.002130529,0,0.234630566,0.014365137,9.820965137,1719786225,2057,1719786225,54109000,world,-2.074291869,-1.915777857,0.136556322,0.013160824,-0.010122695,-0.00469705,0.99985112
1719786225,1719786224,914440076,-0.001065264,-0.002130529,-0.002130529,0.234630566,0.019153516,9.825753516,1719786225,2058,1719786225,64662000,world,-2.074288974,-1.915799301,0.136572203,0.013142205,-0.010125365,-0.004687026,0.999851385
1719786225,1719786224,921966439,0,-0.001065264,0.002130529,0.22026543,0.014365137,9.835330273,1719786225,2059,1719786225,75173000,world,-2.07429017,-1.915791758,0.136579094,0.01314968,-0.010111963,-0.004723244,0.999851251
1719786225,1719786224,929415043,0.002130529,-0.002130529,-0.002130529,0.22026543,0.009576758,9.825753516,1719786225,2060,1719786225,84548000,world,-2.074290138,-1.915775309,0.136564738,0.013126581,-0.010096176,-0.004719862,0.999851731
1719786225,1719786224,936979839,-0.002130529,-0.001065264,0,0.22026543,0.009576758,9.835330273,1719786225,2061,1719786225,94277000,world,-2.074295673,-1.915763554,0.136548148,0.013118156,-0.010074723,-0.004697361,0.999852163
1719786225,1719786224,944418874,0,-0.001065264,-0.001065264,0.229842188,0.004788379,9.725197559,1719786225,2062,1719786225,104395000,world,-2.074292515,-1.915795888,0.136572828,0.013137514,-0.010080762,-0.004697695,0.999851847
1719786225,1719786224,951978902,0.002130529,-0.002130529,-0.002130529,0.234630566,0.009576758,9.734774316,1719786225,2063,1719786225,115369000,world,-2.074295868,-1.915820059,0.136575449,0.013118913,-0.010138904,-0.004713307,0.99985143
1719786225,1719786224,959396690,-0.001065264,0,-0.001065264,0.229842188,0.009576758,9.787446484,1719786225,2064,1719786225,128875000,world,-2.07429165,-1.915797499,0.136565068,0.013160782,-0.010081355,-0.004703527,0.999851507
1719786225,1719786224,966951277,-0.001065264,-0.001065264,-0.004261058,0.225053809,0.009576758,9.820965137,1719786225,2065,1719786225,137474000,world,-2.074295294,-1.9157833,0.136575324,0.013141782,-0.010092165,-0.004703105,0.99985165
1719786225,1719786224,974452969,-0.001065264,-0.001065264,0,0.210688672,0.004788379,9.825753516,1719786225,2066,1719786225,145227000,world,-2.074290896,-1.915789201,0.136578283,0.013141635,-0.010090501,-0.00473429,0.999851522
1719786225,1719786224,981980644,-0.003195793,0,0,0.210688672,0.004788379,9.825753516,1719786225,2067,1719786225,154475000,world,-2.074286354,-1.915795967,0.136571472,0.013132702,-0.010089793,-0.004713743,0.999851743
1719786225,1719786224,989425056,0,-0.004261058,0,0.225053809,0,9.830541895,1719786225,2068,1719786225,164413000,world,-2.074299489,-1.915832598,0.13655987,0.013174545,-0.010114022,-0.004696427,0.99985103
1719786225,1719786224,996965372,-0.001065264,-0.001065264,-0.002130529,0.215477051,0,9.820965137,1719786225,2069,1719786225,175363000,world,-2.074295554,-1.915830164,0.136562449,0.013160657,-0.010138579,-0.004705073,0.999850923
1719786225,1719786225,4417048,-0.001065264,0,-0.001065264,0.22026543,0.004788379,9.816176758,1719786225,2070,1719786225,184434000,world,-2.074284984,-1.915816272,0.13656944,0.013148169,-0.010091919,-0.004704252,0.999851563
1719786225,1719786225,11978741,0.001065264,0,-0.002130529,0.225053809,0.004788379,9.816176758,1719786225,2071,1719786225,194953000,world,-2.074276043,-1.915792198,0.136575045,0.013148713,-0.010071697,-0.004703391,0.999851764
1719786225,1719786225,19399252,0,-0.002130529,-0.001065264,0.229842188,0,9.816176758,1719786225,2072,1719786225,208850000,world,-2.074276663,-1.915789033,0.136592459,0.013146573,-0.01008691,-0.004713409,0.999851592
1719786225,1719786225,26957266,0.001065264,-0.003195793,-0.001065264,0.234630566,0,9.816176758,1719786225,2073,1719786225,218729000,world,-2.074287775,-1.915813468,0.136584406,0.013154601,-0.010085155,-0.004686927,0.999851628
1719786225,1719786225,34423088,-0.001065264,-0.002130529,0.001065264,0.225053809,0.004788379,9.8066,1719786225,2074,1719786225,226111000,world,-2.074287644,-1.915808106,0.136561227,0.013146614,-0.010096239,-0.004705971,0.999851532
1719786225,1719786225,41960653,0,0.001065264,-0.001065264,0.229842188,0.004788379,9.8066,1719786225,2075,1719786225,234734000,world,-2.074263623,-1.915792182,0.136583244,0.0131674,-0.010063856,-0.004677965,0.999851717
1719786225,1719786225,49403179,-0.001065264,-0.001065264,0,0.215477051,0.009576758,9.811388379,1719786225,2076,1719786225,244846000,world,-2.074281969,-1.915795601,0.136597427,0.013158324,-0.010074491,-0.004720119,0.999851531
1719786225,1719786225,56958025,-0.002130529,-0.002130529,-0.001065264,0.225053809,0.004788379,9.801811621,1719786225,2077,1719786225,254463000,world,-2.074275792,-1.915793616,0.136581521,0.01315246,-0.01005398,-0.004727021,0.999851782
1719786225,1719786225,64416103,0,-0.001065264,-0.002130529,0.239418945,0.009576758,9.801811621,1719786225,2078,1719786225,263911000,world,-2.074270886,-1.915797079,0.13656739,0.0131416,-0.010087884,-0.0046955,0.999851732
1719786225,1719786225,71949925,-0.002130529,-0.001065264,-0.003195793,0.22026543,0,9.816176758,1719786225,2079,1719786225,276247000,world,-2.074268436,-1.915808759,0.136562003,0.013138601,-0.010100957,-0.004704099,0.999851599
1719786225,1719786225,79423843,0.001065264,-0.001065264,0,0.215477051,0,9.816176758,1719786225,2080,1719786225,284370000,world,-2.074261946,-1.915790259,0.136558852,0.013149865,-0.010088146,-0.004697502,0.999851611
1719786225,1719786225,86962625,-0.002130529,-0.002130529,-0.002130529,0.225053809,0.009576758,9.811388379,1719786225,2081,1719786225,294678000,world,-2.074264511,-1.915765934,0.136553991,0.013139254,-0.010055129,-0.004709957,0.999852024
1719786225,1719786225,94434943,0.001065264,0,0,0.225053809,0.009576758,9.811388379,1719786225,2082,1719786225,304969000,world,-2.074266482,-1.915765688,0.136572558,0.013113826,-0.010043251,-0.00470115,0.999852519
1719786225,1719786225,101976668,0.001065264,-0.001065264,-0.002130529,0.225053809,0.009576758,9.825753516,1719786225,2083,1719786225,314167000,world,-2.0742544,-1.915758459,0.136579801,0.01311439,-0.010075083,-0.004729593,0.999852057
1719786225,1719786225,109387867,-0.003195793,-0.003195793,-0.003195793,0.22026543,0.014365137,9.825753516,1719786225,2084,1719786225,325588000,world,-2.074260938,-1.91577616,0.136552526,0.013105605,-0.010108544,-0.004699017,0.999851979
1719786225,1719786225,117018456,-0.001065264,-0.001065264,-0.001065264,0.225053809,0.009576758,9.825753516,1719786225,2085,1719786225,334407000,world,-2.074259737,-1.915795807,0.136552212,0.01311054,-0.010145794,-0.004705403,0.999851507
1719786225,1719786225,124400950,0,-0.003195793,0.001065264,0.225053809,0.004788379,9.820965137,1719786225,2086,1719786225,344222000,world,-2.074263954,-1.915765047,0.136562009,0.013123023,-0.010107736,-0.004698639,0.99985176
1719786225,1719786225,131963284,0.001065264,-0.002130529,-0.002130529,0.225053809,0.004788379,9.820965137,1719786225,2087,1719786225,354782000,world,-2.074256889,-1.915712822,0.136556532,0.013115747,-0.010084916,-0.004709992,0.999852033
1719786225,1719786225,139415698,0,-0.002130529,0,0.225053809,0,9.816176758,1719786225,2088,1719786225,363988000,world,-2.0742608,-1.915721544,0.136580075,0.013140714,-0.010093596,-0.004698268,0.999851673
1719786225,1719786225,146971440,-0.002130529,-0.001065264,-0.001065264,0.229842188,0.004788379,9.820965137,1719786225,2089,1719786225,376083000,world,-2.074261702,-1.915722238,0.136592324,0.01310866,-0.010108557,-0.004703981,0.999851915
1719786225,1719786225,154408910,-0.002130529,-0.004261058,-0.001065264,0.22026543,0,9.816176758,1719786225,2090,1719786225,384735000,world,-2.074256971,-1.915727157,0.136574453,0.013136962,-0.010126919,-0.004684675,0.999851449
1719786225,1719786225,161955275,-0.001065264,0,-0.002130529,0.215477051,0.004788379,9.816176758,1719786225,2091,1719786225,394148000,world,-2.074261693,-1.915731211,0.136563591,0.013124097,-0.010134444,-0.004684958,0.99985154
1719786225,1719786225,169382890,-0.002130529,-0.001065264,-0.001065264,0.22026543,0,9.8066,1719786225,2092,1719786225,404662000,world,-2.074252352,-1.915729104,0.136593581,0.013110068,-0.010159152,-0.004695747,0.999851423
1719786225,1719786225,176965351,0.001065264,-0.001065264,-0.002130529,0.225053809,0.004788379,9.8066,1719786225,2093,1719786225,414307000,world,-2.074268564,-1.915735956,0.136601901,0.013148483,-0.010088559,-0.00468626,0.999851678
1719786225,1719786225,184382245,-0.001065264,0,-0.002130529,0.229842188,0.004788379,9.801811621,1719786225,2094,1719786225,424994000,world,-2.07427102,-1.915742501,0.136591224,0.013138189,-0.01008379,-0.004691187,0.999851838
1719786225,1719786225,191963203,0,0,-0.003195793,0.234630566,0.004788379,9.811388379,1719786225,2095,1719786225,435234000,world,-2.074275885,-1.915765807,0.136595711,0.013137014,-0.010091908,-0.004698662,0.999851736
1719786225,1719786225,199386305,0.002130529,-0.002130529,-0.001065264,0.229842188,0.009576758,9.820965137,1719786225,2096,1719786225,444083000,world,-2.074275704,-1.915763546,0.136586888,0.013151641,-0.010109378,-0.004683294,0.99985144
1719786225,1719786225,206913311,-0.002130529,-0.001065264,0.001065264,0.239418945,0.004788379,9.820965137,1719786225,2097,1719786225,454101000,world,-2.074265506,-1.915762784,0.13658172,0.013128828,-0.010145085,-0.004694921,0.999851323
1719786225,1719786225,214384093,0.001065264,-0.002130529,-0.002130529,0.229842188,0.004788379,9.8066,1719786225,2098,1719786225,468776000,world,-2.07426844,-1.915751853,0.13660684,0.013163796,-0.010089799,-0.004721725,0.999851297
1719786225,1719786225,221911291,0.001065264,0,-0.001065264,0.229842188,0.019153516,9.811388379,1719786225,2099,1719786225,478659000,world,-2.074271197,-1.91575376,0.136604947,0.013139349,-0.010087821,-0.004695626,0.999851761
1719786225,1719786225,229364025,0,-0.001065264,-0.001065264,0.234630566,0.009576758,9.820965137,1719786225,2100,1719786225,486610000,world,-2.074268848,-1.915760384,0.136578214,0.01313815,-0.010105748,-0.004704269,0.999851555
1719786225,1719786225,236900567,0,-0.001065264,0,0.229842188,0.004788379,9.820965137,1719786225,2101,1719786225,494908000,world,-2.074268463,-1.915779785,0.13657518,0.013161982,-0.010082428,-0.004684248,0.999851571
1719786225,1719786225,244379765,0,-0.002130529,0,0.225053809,0.009576758,9.816176758,1719786225,2102,1719786225,504339000,world,-2.074268781,-1.915787147,0.136578865,0.013204378,-0.01012498,-0.004688652,0.999850562
1719786225,1719786225,251885650,0.001065264,-0.001065264,0,0.215477051,0.004788379,9.830541895,1719786225,2103,1719786225,515422000,world,-2.074269053,-1.915765945,0.136583781,0.01319252,-0.010124721,-0.004687154,0.999850728
1719786225,1719786225,259367312,0.001065264,-0.001065264,-0.001065264,0.215477051,0.009576758,9.835330273,1719786225,2104,1719786225,524839000,world,-2.074273361,-1.915749695,0.136594598,0.013135363,-0.010114476,-0.004719837,0.99985143
1719786225,1719786225,266913102,-0.002130529,0,-0.003195793,0.215477051,0.014365137,9.830541895,1719786226,2105,1719786225,538171000,world,-2.074278328,-1.915776461,0.136606819,0.013135987,-0.010096463,-0.004685858,0.999851764
1719786225,1719786225,274373324,-0.002130529,-0.003195793,0,0.215477051,0.014365137,9.830541895,1719786226,2106,1719786225,548867000,world,-2.074274711,-1.915797281,0.136584861,0.013148939,-0.010122282,-0.00470839,0.999851227
1719786225,1719786225,281875882,-0.002130529,-0.002130529,0,0.22026543,0.009576758,9.835330273,1719786226,2107,1719786225,556226000,world,-2.074278132,-1.915804529,0.136563483,0.013143145,-0.010153278,-0.004694261,0.999851055
1719786225,1719786225,289367912,0.001065264,0,-0.003195793,0.22026543,0.009576758,9.830541895,1719786226,2108,1719786225,565340000,world,-2.074276429,-1.915781168,0.136571359,0.013150925,-0.0101342,-0.004702468,0.999851108
1719786225,1719786225,296946021,-0.002130529,0.001065264,-0.002130529,0.225053809,0.009576758,9.811388379,1719786226,2109,1719786225,574892000,world,-2.0742772,-1.91576991,0.136603112,0.013144956,-0.010084991,-0.004697568,0.999851707
1719786225,1719786225,304398852,0.002130529,-0.001065264,-0.002130529,0.239418945,0.009576758,9.811388379,1719786226,2110,1719786225,584620000,world,-2.074275513,-1.915762442,0.136587209,0.013167956,-0.010077799,-0.004712988,0.999851404
1719786225,1719786225,311880738,0,0,0.001065264,0.239418945,0,9.8066,1719786226,2111,1719786225,594828000,world,-2.074271963,-1.915777101,0.136562136,0.013126756,-0.010147066,-0.004712323,0.999851249
1719786225,1719786225,319362911,0,-0.003195793,-0.001065264,0.229842188,0,9.811388379,1719786226,2112,1719786225,604736000,world,-2.074276757,-1.915805204,0.136587794,0.01314667,-0.01011677,-0.004657864,0.999851549
1719786225,1719786225,326873757,0.001065264,-0.001065264,-0.005326322,0.239418945,0.004788379,9.8066,1719786226,2113,1719786225,613928000,world,-2.074284571,-1.915783514,0.13660097,0.013133582,-0.010147708,-0.004680521,0.999851302
1719786225,1719786225,334372635,-0.001065264,0.002130529,-0.002130529,0.234630566,0,9.797023242,1719786226,2114,1719786225,624936000,world,-2.074276764,-1.915753054,0.136618139,0.013147238,-0.010113805,-0.004681952,0.999851459
1719786225,1719786225,341901945,0.001065264,0,-0.001065264,0.239418945,0.009576758,9.811388379,1719786226,2115,1719786225,634583000,world,-2.074276213,-1.915746485,0.136631024,0.013138977,-0.010101482,-0.004717955,0.999851523
1719786225,1719786225,349342679,-0.001065264,-0.001065264,-0.002130529,0.253784082,0.014365137,9.811388379,1719786226,2116,1719786225,645467000,world,-2.074285878,-1.915773716,0.136610526,0.013147655,-0.010131233,-0.004710977,0.999851141
1719786225,1719786225,356998388,-0.001065264,-0.001065264,0,0.248995703,0.004788379,9.830541895,1719786226,2117,1719786225,654898000,world,-2.074281916,-1.915794309,0.136591251,0.013156399,-0.010129369,-0.004725163,0.999850978
1719786225,1719786225,364393715,-0.003195793,-0.001065264,-0.002130529,0.244207324,0,9.835330273,1719786226,2118,1719786225,664068000,world,-2.07427068,-1.915787938,0.136608637,0.013153644,-0.010117473,-0.004693875,0.999851282
1719786225,1719786225,371856177,-0.002130529,-0.002130529,-0.003195793,0.244207324,0.004788379,9.825753516,1719786226,2119,1719786225,676452000,world,-2.074276165,-1.915764048,0.136623219,0.013139251,-0.010128314,-0.004702896,0.999851319
1719786225,1719786225,379366415,0,-0.001065264,-0.003195793,0.239418945,0.004788379,9.830541895,1719786226,2120,1719786225,684322000,world,-2.074277392,-1.915750299,0.136638997,0.013146131,-0.010079779,-0.004705421,0.999851707
1719786225,1719786225,386866540,0.001065264,-0.001065264,-0.001065264,0.22026543,0.004788379,9.825753516,1719786226,2121,1719786225,694145000,world,-2.074289436,-1.915764865,0.136631454,0.013131301,-0.010081238,-0.004702376,0.999851902
1719786225,1719786225,394360650,0,-0.002130529,0.002130529,0.225053809,0.009576758,9.816176758,1719786226,2122,1719786225,706051000,world,-2.074282975,-1.915777888,0.136617555,0.013157513,-0.010135822,-0.004708059,0.999850978
1719786225,1719786225,404356189,-0.001065264,-0.001065264,-0.001065264,0.215477051,0.004788379,9.820965137,1719786226,2123,1719786225,714311000,world,-2.074281242,-1.915778503,0.136609713,0.013148293,-0.010131691,-0.004678756,0.999851279
1719786225,1719786225,409343270,0,-0.001065264,0,0.225053809,0.004788379,9.820965137,1719786226,2124,1719786225,726338000,world,-2.074277351,-1.915772939,0.136600187,0.013124232,-0.010154992,-0.004692479,0.999851295
1719786225,1719786225,416891876,0,0,-0.003195793,0.215477051,0.009576758,9.811388379,1719786226,2125,1719786225,734671000,world,-2.074283445,-1.915757345,0.136624698,0.013143469,-0.010136981,-0.004701873,0.999851181
1719786225,1719786225,424368834,0,-0.001065264,0,0.234630566,0.004788379,9.801811621,1719786226,2126,1719786225,744207000,world,-2.074281566,-1.915757816,0.136628588,0.013141795,-0.010104856,-0.004699927,0.999851537
1719786225,1719786225,431865440,0.002130529,-0.001065264,0,0.229842188,-0.004788379,9.811388379,1719786226,2127,1719786225,755479000,world,-2.074282943,-1.915769437,0.136617442,0.013123633,-0.010109208,-0.004698445,0.999851738
1719786225,1719786225,439354238,-0.001065264,-0.002130529,-0.001065264,0.210688672,0.009576758,9.816176758,1719786226,2128,1719786225,764285000,world,-2.07428202,-1.915781496,0.136615138,0.013138681,-0.010133654,-0.004686022,0.999851352
1719786225,1719786225,446859580,-0.001065264,-0.001065264,-0.001065264,0.215477051,0.019153516,9.816176758,1719786226,2129,1719786225,775704000,world,-2.074279672,-1.915788078,0.136635377,0.013130982,-0.010144152,-0.004699898,0.999851281
1719786225,1719786225,454383225,-0.001065264,0,0.001065264,0.210688672,0.004788379,9.816176758,1719786226,2130,1719786225,784734000,world,-2.074279718,-1.915791308,0.136640327,0.013108754,-0.010166461,-0.004683066,0.999851425
1719786225,1719786225,461860087,0,0,-0.002130529,0.215477051,0.009576758,9.816176758,1719786226,2131,1719786225,794283000,world,-2.074271503,-1.915754253,0.136629887,0.013116146,-0.010125126,-0.004706793,0.999851636
1719786225,1719786225,469355445,-0.003195793,-0.002130529,0,0.225053809,0.004788379,9.801811621,1719786226,2132,1719786225,804533000,world,-2.074274693,-1.915771021,0.136627059,0.013126793,-0.010124167,-0.004701156,0.999851533
1719786225,1719786225,476930259,-0.001065264,0.002130529,-0.006391587,0.229842188,-0.009576758,9.801811621,1719786226,2133,1719786225,814477000,world,-2.074279362,-1.915800603,0.136633114,0.013124565,-0.010151024,-0.00469933,0.999851298
1719786225,1719786225,484349521,-0.001065264,-0.001065264,0.001065264,0.225053809,-0.004788379,9.816176758,1719786226,2134,1719786225,824815000,world,-2.074272487,-1.915789921,0.136634165,0.013156052,-0.010133902,-0.004677675,0.99985116
1719786225,1719786225,491857583,0,0.001065264,-0.001065264,0.229842188,-0.004788379,9.811388379,1719786226,2135,1719786225,835292000,world,-2.074261619,-1.915791099,0.136636718,0.013111852,-0.010179658,-0.00468782,0.999851228
1719786225,1719786225,499339085,-0.002130529,-0.001065264,0,0.229842188,-0.009576758,9.816176758,1719786226,2136,1719786225,844093000,world,-2.074267844,-1.915775983,0.136651223,0.013114626,-0.010136046,-0.00468723,0.999851638
1719786226,1719786225,506854699,0,0.001065264,0,0.239418945,0.004788379,9.816176758,1719786226,2137,1719786225,854283000,world,-2.074268129,-1.915753637,0.136639739,0.013110226,-0.010095878,-0.004698876,0.999852047
1719786226,1719786225,514347337,-0.002130529,0,-0.002130529,0.229842188,0.004788379,9.825753516,1719786226,2138,1719786225,864918000,world,-2.0742769,-1.915782857,0.136618818,0.013133638,-0.010114105,-0.004703427,0.999851534
1719786226,1719786225,521861638,0,-0.001065264,0,0.244207324,0.009576758,9.830541895,1719786226,2139,1719786225,875095000,world,-2.074263111,-1.915803848,0.136621251,0.013134614,-0.01012913,-0.004685777,0.999851452
1719786226,1719786225,529327012,-0.001065264,0.001065264,-0.002130529,0.225053809,0.004788379,9.816176758,1719786226,2140,1719786225,884701000,world,-2.074264041,-1.915788721,0.136593926,0.013132899,-0.010134484,-0.004684591,0.999851426
1719786226,1719786225,537029409,-0.001065264,-0.001065264,0,0.229842188,0.019153516,9.811388379,1719786226,2141,1719786225,894255000,world,-2.074279406,-1.915763686,0.136588371,0.013127381,-0.010128504,-0.004700169,0.999851486
1719786226,1719786225,544344544,-0.002130529,0,-0.002130529,0.234630566,0.019153516,9.811388379,1719786226,2142,1719786225,904608000,world,-2.074285718,-1.915756648,0.136627974,0.013148206,-0.010081148,-0.004704331,0.999851671
1719786226,1719786225,551846174,-0.001065264,-0.002130529,-0.002130529,0.229842188,0.009576758,9.825753516,1719786226,2143,1719786225,915418000,world,-2.074287244,-1.915771982,0.136611651,0.013137626,-0.010081159,-0.004701969,0.999851821
1719786226,1719786225,559330908,0,0.001065264,-0.002130529,0.22026543,0,9.825753516,1719786226,2144,1719786225,928597000,world,-2.074285379,-1.915787445,0.136597182,0.013161187,-0.010102749,-0.004683623,0.99985138
1719786226,1719786225,566851642,0,0,-0.003195793,0.22026543,0.004788379,9.820965137,1719786226,2145,1719786225,937567000,world,-2.074285603,-1.915795393,0.136621058,0.013180264,-0.010103541,-0.00469791,0.999851053
1719786226,1719786225,574341624,0.003195793,-0.003195793,-0.001065264,0.225053809,0.014365137,9.825753516,1719786226,2146,1719786225,946244000,world,-2.074293869,-1.915799039,0.136629585,0.013158782,-0.010106676,-0.004682082,0.999851379
1719786226,1719786225,581855958,0,0.001065264,0,0.239418945,0.009576758,9.825753516,1719786226,2147,1719786225,955591000,world,-2.074288597,-1.915792636,0.136637052,0.013148892,-0.010073738,-0.004710363,0.999851708
1719786226,1719786225,589359828,0.002130529,-0.001065264,-0.001065264,0.239418945,0.004788379,9.816176758,1719786226,2148,1719786225,965303000,world,-2.074288341,-1.915798385,0.136621402,0.013157195,-0.010034071,-0.004737081,0.999851872
1719786226,1719786225,596836594,-0.001065264,0,-0.001065264,0.234630566,-0.004788379,9.825753516,1719786226,2149,1719786225,974767000,world,-2.074284595,-1.915812288,0.136595931,0.01312998,-0.010074141,-0.004716957,0.999851922
1719786226,1719786225,604346223,0.002130529,-0.001065264,0,0.239418945,0,9.820965137,1719786226,2150,1719786225,984562000,world,-2.07428408,-1.915810885,0.136598018,0.013152136,-0.010086561,-0.004712278,0.999851527
1719786226,1719786225,611860461,-0.002130529,-0.001065264,-0.001065264,0.225053809,0.009576758,9.825753516,1719786226,2151,1719786225,994907000,world,-2.074283371,-1.915788992,0.1366061,0.013123786,-0.010103605,-0.004710591,0.999851736
1719786226,1719786225,619339211,0,0.001065264,-0.002130529,0.215477051,0.009576758,9.820965137,1719786226,2152,1719786226,4961000,world,-2.074288461,-1.915777308,0.136634337,0.013105699,-0.010121066,-0.004681681,0.999851932
1719786226,1719786225,626936201,0.001065264,-0.002130529,0,0.215477051,-0.004788379,9.820965137,1719786226,2153,1719786226,14017000,world,-2.074292588,-1.915753539,0.136654904,0.013090903,-0.010094969,-0.004674982,0.999852421
1719786226,1719786225,636945595,-0.003195793,-0.002130529,-0.001065264,0.225053809,0.004788379,9.825753516,1719786226,2154,1719786226,25152000,world,-2.074299116,-1.915753841,0.136638244,0.013112823,-0.010138411,-0.004702078,0.999851567
1719786226,1719786225,644333146,0,0.001065264,-0.001065264,0.22026543,0.009576758,9.825753516,1719786226,2155,1719786226,34649000,world,-2.074285568,-1.915757537,0.136611141,0.013123799,-0.010184935,-0.004668536,0.999851108
1719786226,1719786225,651850999,0,-0.001065264,-0.004261058,0.229842188,0.004788379,9.816176758,1719786226,2156,1719786226,45032000,world,-2.074283966,-1.915754652,0.136616759,0.013122791,-0.010173672,-0.004672733,0.999851216
1719786226,1719786225,659318773,0.001065264,0.001065264,-0.001065264,0.225053809,0.009576758,9.816176758,1719786226,2157,1719786226,54903000,world,-2.074289572,-1.915755067,0.136605985,0.013139563,-0.010173685,-0.004691411,0.999850908
1719786226,1719786225,666821715,0.001065264,-0.003195793,-0.003195793,0.225053809,0,9.830541895,1719786226,2158,1719786226,63952000,world,-2.074284008,-1.915738983,0.136622635,0.013172546,-0.010138525,-0.004698637,0.999850797
1719786226,1719786225,674323473,0,0,0,0.22026543,0.004788379,9.811388379,1719786226,2159,1719786226,76480000,world,-2.074282665,-1.91576304,0.136659259,0.013139397,-0.010143413,-0.004706041,0.999851149
1719786226,1719786225,681833743,0,0,-0.001065264,0.225053809,0.004788379,9.820965137,1719786226,2160,1719786226,84709000,world,-2.074290581,-1.915761351,0.136642259,0.013133297,-0.01017421,-0.004679872,0.999851039
1719786226,1719786225,689320781,0.003195793,-0.002130529,-0.001065264,0.22026543,0.004788379,9.830541895,1719786226,2161,1719786226,93995000,world,-2.074282713,-1.915759362,0.136615504,0.013137352,-0.010184159,-0.004691909,0.999850828
1719786226,1719786225,696971562,-0.001065264,-0.001065264,0,0.215477051,0,9.825753516,1719786226,2162,1719786226,105525000,world,-2.074289571,-1.915767382,0.136619249,0.013177029,-0.010164598,-0.004706787,0.999850435
1719786226,1719786225,704325001,-0.002130529,-0.001065264,0,0.22026543,-0.004788379,9.820965137,1719786226,2163,1719786226,114052000,world,-2.074298045,-1.915769929,0.13662329,0.01313167,-0.010179818,-0.004687531,0.999850968
1719786226,1719786225,711832263,-0.001065264,0,-0.003195793,0.22026543,0.004788379,9.830541895,1719786226,2164,1719786226,124528000,world,-2.074295646,-1.915763321,0.136639646,0.013141489,-0.010116744,-0.004685784,0.999851487
1719786226,1719786225,719315621,0.001065264,-0.003195793,0,0.239418945,0,9.820965137,1719786226,2165,1719786226,134694000,world,-2.074289507,-1.915781714,0.136653619,0.013115643,-0.010171414,-0.004678642,0.999851305
1719786226,1719786225,726830051,-0.003195793,0.001065264,-0.001065264,0.234630566,0,9.8066,1719786226,2166,1719786226,144194000,world,-2.074293375,-1.915794121,0.13666241,0.013128466,-0.01013534,-0.004680745,0.999851493
1719786226,1719786225,734349280,0,-0.001065264,-0.001065264,0.239418945,0.009576758,9.820965137,1719786226,2167,1719786226,155536000,world,-2.074296423,-1.915769604,0.136638469,0.013123814,-0.010165347,-0.00467821,0.999851262
1719786226,1719786225,741842238,0.001065264,-0.001065264,-0.002130529,0.225053809,0.009576758,9.8066,1719786226,2168,1719786226,164232000,world,-2.074283126,-1.915742186,0.136630808,0.013136701,-0.010147513,-0.004700119,0.999851171
1719786226,1719786225,749321916,-0.002130529,0.002130529,-0.001065264,0.205900293,0.004788379,9.811388379,1719786226,2169,1719786226,175281000,world,-2.07427887,-1.915752481,0.136648112,0.013134868,-0.010132157,-0.004691232,0.999851392
1719786226,1719786225,756943514,0,-0.001065264,-0.001065264,0.225053809,-0.009576758,9.816176758,1719786226,2170,1719786226,184951000,world,-2.074279051,-1.915778046,0.136657192,0.013140314,-0.010120203,-0.004669277,0.999851545
1719786226,1719786225,764336152,-0.003195793,-0.001065264,-0.002130529,0.229842188,-0.004788379,9.811388379,1719786226,2171,1719786226,194169000,world,-2.074279179,-1.915798994,0.136643042,0.013110492,-0.010152091,-0.004673818,0.999851592
1719786226,1719786225,771832822,0.002130529,-0.003195793,0.001065264,0.229842188,0,9.811388379,1719786226,2172,1719786226,205213000,world,-2.074284973,-1.915795725,0.136644754,0.013131733,-0.010150583,-0.004673322,0.999851331
1719786226,1719786225,779340564,-0.001065264,0.003195793,-0.001065264,0.225053809,0.004788379,9.801811621,1719786226,2173,1719786226,214349000,world,-2.074281877,-1.915774165,0.136641535,0.01310662,-0.010126025,-0.004677433,0.99985189
1719786226,1719786225,786838962,0,-0.001065264,-0.001065264,0.229842188,0.004788379,9.811388379,1719786226,2174,1719786226,225331000,world,-2.074292421,-1.91575558,0.136627218,0.013150865,-0.010116051,-0.004674754,0.999851422
1719786226,1719786225,794309744,-0.001065264,-0.001065264,-0.003195793,0.239418945,0.004788379,9.820965137,1719786226,2175,1719786226,235449000,world,-2.074283276,-1.91574642,0.136616705,0.013121981,-0.010122844,-0.004697445,0.999851627
1719786226,1719786225,801842638,-0.001065264,-0.001065264,-0.001065264,0.248995703,0.004788379,9.820965137,1719786226,2176,1719786226,244200000,world,-2.074280703,-1.915781879,0.136613442,0.013134489,-0.010169357,-0.004679845,0.999851073
1719786226,1719786225,809332268,0.002130529,0.002130529,0,0.248995703,0.004788379,9.820965137,1719786226,2177,1719786226,254816000,world,-2.074275207,-1.915787877,0.136618614,0.013143244,-0.010146596,-0.004692254,0.999851131
1719786226,1719786225,816818121,0.001065264,-0.002130529,0.001065264,0.22026543,0,9.820965137,1719786226,2178,1719786226,264339000,world,-2.074275949,-1.915777194,0.136618831,0.013151054,-0.010126579,-0.004695427,0.999851216
1719786226,1719786225,824327079,0.002130529,-0.001065264,-0.002130529,0.225053809,0,9.825753516,1719786226,2179,1719786226,274629000,world,-2.074277215,-1.91578178,0.136628732,0.013124271,-0.010121365,-0.004689523,0.999851649
1719786226,1719786225,831806789,0.001065264,0,0,0.229842188,0.004788379,9.820965137,1719786226,2180,1719786226,284625000,world,-2.074287586,-1.915793989,0.136652744,0.01315823,-0.010118686,-0.004686391,0.999851244
1719786226,1719786225,839287843,-0.001065264,-0.001065264,-0.003195793,0.229842188,0,9.811388379,1719786226,2181,1719786226,294382000,world,-2.074294031,-1.915779161,0.13662162,0.01314613,-0.010144301,-0.004690964,0.999851123
1719786226,1719786225,846880961,-0.002130529,0,0,0.229842188,0,9.811388379,1719786226,2182,1719786226,304421000,world,-2.074288459,-1.915766368,0.136603159,0.013174845,-0.010109765,-0.004688636,0.999851105
1719786226,1719786225,854305023,-0.004261058,0,-0.004261058,0.234630566,0.004788379,9.816176758,1719786226,2183,1719786226,315509000,world,-2.074288997,-1.915779567,0.136638476,0.013145611,-0.010144427,-0.004671555,0.999851219
1719786226,1719786225,861824573,0,0,-0.002130529,0.239418945,0.009576758,9.825753516,1719786226,2184,1719786226,324900000,world,-2.074278903,-1.915761225,0.136646135,0.013152426,-0.010102266,-0.004669336,0.999851567
1719786226,1719786225,869293659,0,-0.002130529,-0.003195793,0.239418945,0.004788379,9.835330273,1719786226,2185,1719786226,334571000,world,-2.074273796,-1.91575488,0.136635986,0.013133229,-0.010145446,-0.004665612,0.999851399
1719786226,1719786225,876821689,-0.002130529,-0.002130529,0,0.239418945,-0.004788379,9.830541895,1719786226,2186,1719786226,344433000,world,-2.074280089,-1.915770947,0.136637651,0.013156742,-0.010119127,-0.004680924,0.999851285
1719786226,1719786225,884306807,0.001065264,-0.001065264,-0.004261058,0.225053809,0.004788379,9.825753516,1719786226,2187,1719786226,354435000,world,-2.074279852,-1.915775837,0.1366232,0.013148444,-0.0101354,-0.004651528,0.999851367
1719786226,1719786225,891806901,-0.002130529,0.001065264,-0.001065264,0.210688672,0.004788379,9.825753516,1719786226,2188,1719786226,365038000,world,-2.074288255,-1.915764953,0.136619283,0.013177991,-0.010158661,-0.004683256,0.999850593
1719786226,1719786225,899293203,-0.001065264,0.001065264,0.001065264,0.22026543,0.004788379,9.830541895,1719786226,2189,1719786226,378386000,world,-2.07427608,-1.915756197,0.136651902,0.01315966,-0.010142482,-0.004687298,0.99985098
1719786226,1719786225,906809264,-0.003195793,0,-0.002130529,0.225053809,0.014365137,9.835330273,1719786226,2190,1719786226,387720000,world,-2.074277928,-1.915750569,0.136664366,0.013162106,-0.010129122,-0.004689301,0.999851074
1719786226,1719786225,914305902,-0.001065264,0.004261058,-0.002130529,0.215477051,0.014365137,9.825753516,1719786226,2191,1719786226,396438000,world,-2.074279251,-1.915767005,0.136646928,0.013160635,-0.010119766,-0.004680457,0.99985123
1719786226,1719786225,921806284,0,0.001065264,-0.002130529,0.215477051,0.004788379,9.825753516,1719786226,2192,1719786226,405482000,world,-2.074276982,-1.915767362,0.136630227,0.01314274,-0.010134691,-0.004691125,0.999851264
1719786226,1719786225,929294858,0.001065264,0,-0.003195793,0.229842188,0.004788379,9.816176758,1719786226,2193,1719786226,413919000,world,-2.074283305,-1.915796574,0.136622297,0.013148109,-0.010145364,-0.004669587,0.999851186
1719786226,1719786225,936839880,0,0,-0.001065264,0.229842188,0.004788379,9.816176758,1719786226,2194,1719786226,425065000,world,-2.0742914,-1.915786647,0.136629774,0.013155842,-0.010166217,-0.0047047,0.999850708
1719786226,1719786225,944294278,0.001065264,-0.004261058,-0.002130529,0.225053809,0.009576758,9.816176758,1719786226,2195,1719786226,434925000,world,-2.074297446,-1.915771683,0.136642038,0.013172482,-0.010108891,-0.004691334,0.999851133
1719786226,1719786225,951854724,0.001065264,-0.003195793,-0.001065264,0.196323535,0.004788379,9.820965137,1719786226,2196,1719786226,445072000,world,-2.074290346,-1.91578773,0.136623871,0.013153589,-0.010130106,-0.004693987,0.999851154
1719786226,1719786225,959362881,0.002130529,-0.002130529,-0.001065264,0.205900293,0.009576758,9.825753516,1719786226,2197,1719786226,454888000,world,-2.074295397,-1.915800835,0.136637098,0.013110782,-0.010129434,-0.004715453,0.999851622
1719786226,1719786225,966811008,-0.001065264,0.002130529,-0.001065264,0.210688672,0.014365137,9.816176758,1719786226,2198,1719786226,464116000,world,-2.074300841,-1.91580889,0.136647308,0.013145093,-0.010142323,-0.004674477,0.999851233
1719786226,1719786225,974329565,-0.001065264,-0.002130529,-0.003195793,0.205900293,0.009576758,9.820965137,1719786226,2199,1719786226,476436000,world,-2.074283738,-1.915782949,0.136648101,0.013136608,-0.010113761,-0.004684322,0.999851588
1719786226,1719786225,981825147,-0.002130529,-0.001065264,0,0.225053809,0.009576758,9.820965137,1719786226,2200,1719786226,484454000,world,-2.074283057,-1.915761564,0.136633643,0.013136222,-0.010102051,-0.004704008,0.999851619
1719786226,1719786225,989302233,-0.002130529,-0.001065264,-0.003195793,0.229842188,0.004788379,9.8066,1719786226,2201,1719786226,494024000,world,-2.074285628,-1.915769791,0.136638102,0.013161144,-0.010061657,-0.004691211,0.999851759
1719786226,1719786225,997181174,-0.002130529,-0.003195793,-0.004261058,0.225053809,0.009576758,9.8066,1719786226,2202,1719786226,505870000,world,-2.07429363,-1.915800125,0.136653227,0.013119808,-0.010110308,-0.004691941,0.999851808
1719786226,1719786226,4332213,0,-0.002130529,0.001065264,0.234630566,0,9.820965137,1719786226,2203,1719786226,514213000,world,-2.074294253,-1.915811549,0.136665031,0.013123589,-0.010102799,-0.004691836,0.999851835
1719786226,1719786226,11814806,0.001065264,0,-0.002130529,0.234630566,0,9.811388379,1719786226,2204,1719786226,525778000,world,-2.074285351,-1.915796628,0.136658381,0.013130575,-0.010109687,-0.004696598,0.999851651
1719786226,1719786226,19372181,-0.003195793,-0.001065264,0,0.225053809,0,9.816176758,1719786227,2205,1719786226,534113000,world,-2.074285679,-1.915781931,0.136637223,0.013136961,-0.010108365,-0.004703709,0.999851547
1719786226,1719786226,26814102,-0.002130529,0.001065264,-0.001065264,0.215477051,0.004788379,9.816176758,1719786227,2206,1719786226,544154000,world,-2.074295711,-1.915792817,0.136639216,0.013122112,-0.010102396,-0.004679705,0.999851915
1719786226,1719786226,34308438,0.001065264,-0.003195793,0.002130529,0.22026543,0.009576758,9.801811621,1719786227,2207,1719786226,555961000,world,-2.074290034,-1.915792272,0.136662288,0.0131678,-0.010086874,-0.004697198,0.999851389
1719786226,1719786226,41813622,0,0.001065264,-0.005326322,0.229842188,0.009576758,9.816176758,1719786227,2208,1719786226,564171000,world,-2.074282344,-1.915784806,0.13667295,0.013123371,-0.010094862,-0.004688967,0.999851931
1719786226,1719786226,49297942,-0.001065264,-0.003195793,-0.001065264,0.229842188,0.009576758,9.820965137,1719786227,2209,1719786226,574988000,world,-2.074283856,-1.915793698,0.136672778,0.013131198,-0.010151994,-0.004694534,0.999851224
1719786226,1719786226,56820054,-0.001065264,-0.001065264,0,0.22026543,0.004788379,9.825753516,1719786227,2210,1719786226,584929000,world,-2.074291885,-1.915794198,0.136666105,0.013116285,-0.010102918,-0.004690237,0.999851937
1719786226,1719786226,64288182,0,-0.001065264,-0.001065264,0.22026543,-0.009576758,9.801811621,1719786227,2211,1719786226,594102000,world,-2.074292072,-1.915795691,0.136654745,0.013150776,-0.010114614,-0.004709727,0.999851274
1719786226,1719786226,71793430,0,0.001065264,0.002130529,0.229842188,0,9.825753516,1719786227,2212,1719786226,605387000,world,-2.074286802,-1.915807876,0.136663899,0.013162164,-0.010116535,-0.004689382,0.9998512
1719786226,1719786226,79350966,-0.001065264,0,0,0.229842188,0,9.825753516,1719786227,2213,1719786226,614191000,world,-2.074296106,-1.915815663,0.136682994,0.013114897,-0.010156067,-0.004704568,0.999851349
1719786226,1719786226,86858741,0.001065264,-0.001065264,0,0.239418945,0.004788379,9.830541895,1719786227,2214,1719786226,628249000,world,-2.074296741,-1.915804513,0.136677714,0.013139471,-0.010126806,-0.004698372,0.999851353
1719786226,1719786226,94287830,-0.002130529,0,0,0.234630566,0,9.820965137,1719786227,2215,1719786226,637753000,world,-2.074295382,-1.915766058,0.13668297,0.013140033,-0.01012109,-0.004698456,0.999851403
1719786226,1719786226,101786070,0.001065264,-0.001065264,0,0.22026543,0.004788379,9.820965137,1719786227,2216,1719786226,645509000,world,-2.074282571,-1.915764869,0.13669644,0.013092974,-0.010109672,-0.00469176,0.999852167
1719786226,1719786226,109302038,0.001065264,-0.001065264,-0.001065264,0.225053809,0.004788379,9.835330273,1719786227,2217,1719786226,654222000,world,-2.074287948,-1.915778335,0.136700023,0.013131214,-0.01010429,-0.004696411,0.999851698
1719786226,1719786226,116786902,0.001065264,-0.004261058,0.001065264,0.22026543,0.004788379,9.830541895,1719786227,2218,1719786226,668742000,world,-2.074295643,-1.915779071,0.136694067,0.013166027,-0.010109724,-0.004696593,0.999851185
1719786226,1719786226,124289590,0.001065264,-0.001065264,-0.003195793,0.229842188,0.019153516,9.816176758,1719786227,2219,1719786226,676752000,world,-2.074294431,-1.91578428,0.136698089,0.013171484,-0.010109214,-0.004676872,0.99985121
1719786226,1719786226,131767638,0,-0.002130529,0.001065264,0.225053809,0.023941895,9.830541895,1719786227,2220,1719786226,685220000,world,-2.074289976,-1.915765719,0.136685242,0.013155939,-0.010084632,-0.004705684,0.999851528
1719786226,1719786226,139282774,0,-0.001065264,-0.001065264,0.229842188,0.014365137,9.825753516,1719786227,2221,1719786226,694541000,world,-2.074275342,-1.915737795,0.136655026,0.013193147,-0.010101127,-0.004675514,0.999851013
1719786226,1719786226,146762134,-0.001065264,-0.002130529,0,0.22026543,0.019153516,9.811388379,1719786227,2222,1719786226,704480000,world,-2.074281499,-1.915751084,0.136642521,0.013139963,-0.010062233,-0.004686595,0.999852053
1719786226,1719786226,154267126,-0.001065264,0,0.002130529,0.225053809,0.009576758,9.801811621,1719786227,2223,1719786226,715337000,world,-2.07428399,-1.91577172,0.136662793,0.013140011,-0.010144485,-0.004687603,0.999851217
1719786226,1719786226,161781494,0.001065264,-0.001065264,-0.001065264,0.225053809,-0.004788379,9.8066,1719786227,2224,1719786226,724022000,world,-2.074285177,-1.915792023,0.136685538,0.013137989,-0.01017372,-0.004708829,0.999850847
1719786226,1719786226,169260310,-0.002130529,-0.002130529,-0.003195793,0.229842188,-0.004788379,9.825753516,1719786227,2225,1719786226,735019000,world,-2.074293394,-1.915788586,0.136664376,0.013151847,-0.010162363,-0.004706252,0.999850792
1719786226,1719786226,176772150,0,-0.002130529,0,0.229842188,0.004788379,9.816176758,1719786227,2226,1719786226,744477000,world,-2.074294683,-1.915797821,0.136671002,0.013099855,-0.010116952,-0.004685559,0.999852032
1719786226,1719786226,184267222,-0.002130529,0,0,0.225053809,0.004788379,9.820965137,1719786227,2227,1719786226,754861000,world,-2.074293924,-1.915804178,0.136657525,0.013108787,-0.01010199,-0.004678681,0.999852099
1719786226,1719786226,191772054,0.002130529,0,-0.002130529,0.225053809,0,9.820965137,1719786227,2228,1719786226,765031000,world,-2.074283897,-1.9157862,0.136636845,0.013131031,-0.010096017,-0.004694615,0.999851793
1719786226,1719786226,199252246,0.001065264,-0.001065264,-0.001065264,0.234630566,-0.004788379,9.825753516,1719786227,2229,1719786226,774754000,world,-2.074281187,-1.915794268,0.136645183,0.013074754,-0.010145543,-0.004691342,0.999852044
1719786226,1719786226,206753110,0,0,-0.001065264,0.225053809,0,9.825753516,1719786227,2230,1719786226,784836000,world,-2.074291464,-1.915804784,0.136661324,0.013115393,-0.010174284,-0.00470342,0.999851163
1719786226,1719786226,214268022,-0.002130529,-0.002130529,-0.001065264,0.239418945,0.004788379,9.820965137,1719786227,2231,1719786226,794729000,world,-2.074273165,-1.915789469,0.136646256,0.013124165,-0.010154985,-0.004701255,0.999851254
1719786226,1719786226,221766838,0,0.002130529,-0.002130529,0.244207324,0.004788379,9.816176758,1719786227,2232,1719786226,805266000,world,-2.074266848,-1.915784982,0.136646436,0.013143432,-0.010157843,-0.004708125,0.99985094
1719786226,1719786226,229274582,-0.001065264,-0.004261058,-0.001065264,0.244207324,0.009576758,9.820965137,1719786227,2233,1719786226,814022000,world,-2.074269138,-1.915781622,0.136665694,0.013175786,-0.010151645,-0.004706844,0.999850583
1719786226,1719786226,239301419,-0.002130529,0.002130529,-0.001065264,0.22026543,0.009576758,9.820965137,1719786227,2234,1719786226,824972000,world,-2.074271394,-1.915759852,0.136669433,0.013169808,-0.010123808,-0.004711158,0.999850924
1719786226,1719786226,246763979,-0.001065264,-0.004261058,0.001065264,0.22026543,0.009576758,9.820965137,1719786227,2235,1719786226,834684000,world,-2.074274485,-1.915768424,0.136655714,0.013156729,-0.010131012,-0.004714858,0.999851005
1719786226,1719786226,254265163,-0.001065264,0.001065264,0,0.225053809,0.004788379,9.840118652,1719786227,2236,1719786226,844798000,world,-2.074272409,-1.915782609,0.136649022,0.013132852,-0.010133868,-0.00470545,0.999851335
1719786226,1719786226,261773195,0,-0.002130529,0,0.234630566,0.004788379,9.830541895,1719786227,2237,1719786226,855341000,world,-2.074264384,-1.915787304,0.136646823,0.013127302,-0.01012887,-0.004716648,0.999851406
1719786226,1719786226,269268459,-0.001065264,-0.002130529,-0.002130529,0.239418945,0,9.816176758,1719786227,2238,1719786226,868907000,world,-2.074267087,-1.915753206,0.136640216,0.013132937,-0.010140107,-0.004713191,0.999851234
1719786226,1719786226,276758635,-0.001065264,-0.002130529,-0.002130529,0.234630566,0,9.825753516,1719786227,2239,1719786226,878407000,world,-2.074270683,-1.9157653,0.136674309,0.01313208,-0.010132901,-0.00469966,0.999851382
1719786226,1719786226,284266699,0.001065264,0,-0.002130529,0.22026543,-0.004788379,9.820965137,1719786227,2240,1719786226,885808000,world,-2.074283765,-1.915798715,0.1367003,0.013154705,-0.010130235,-0.004697043,0.999851124
1719786226,1719786226,291770859,0,-0.004261058,0,0.225053809,0.004788379,9.811388379,1719786227,2241,1719786226,894906000,world,-2.074279757,-1.915804144,0.13668178,0.013122557,-0.010157912,-0.00468938,0.999851301
1719786226,1719786226,299257260,-0.002130529,-0.003195793,0,0.229842188,0.004788379,9.825753516,1719786227,2242,1719786226,905093000,world,-2.074278304,-1.915768256,0.136646954,0.013141194,-0.010154224,-0.00470064,0.999851041
1719786226,1719786226,306740812,-0.001065264,-0.002130529,-0.003195793,0.234630566,0.009576758,9.820965137,1719786227,2243,1719786226,914090000,world,-2.074275513,-1.915750916,0.136638121,0.013161949,-0.010115031,-0.004701803,0.99985116
1719786226,1719786226,314241132,0,0,-0.003195793,0.234630566,0.009576758,9.835330273,1719786227,2244,1719786226,926035000,world,-2.074287877,-1.915766295,0.136661781,0.01316722,-0.010128962,-0.004685269,0.999851027
1719786226,1719786226,321747468,-0.001065264,-0.001065264,0,0.225053809,0,9.830541895,1719786227,2245,1719786226,934804000,world,-2.074290008,-1.915785862,0.136686397,0.013102033,-0.010155198,-0.004688468,0.999851602
1719786226,1719786226,329254092,-0.001065264,-0.002130529,0,0.22026543,0.004788379,9.825753516,1719786227,2246,1719786226,944086000,world,-2.074295966,-1.91579939,0.13670252,0.013098979,-0.010116985,-0.004686497,0.999852039
1719786226,1719786226,336757420,-0.001065264,-0.001065264,-0.002130529,0.234630566,0.004788379,9.820965137,1719786227,2247,1719786226,955965000,world,-2.074291458,-1.91579702,0.136689938,0.013151025,-0.0101361,-0.00468988,0.999851146
1719786226,1719786226,344241420,0,-0.001065264,-0.001065264,0.22026543,0.009576758,9.816176758,1719786227,2248,1719786226,964378000,world,-2.074273129,-1.915752858,0.136668722,0.013125698,-0.010176968,-0.004695914,0.999851036
1719786226,1719786226,351743820,-0.001065264,-0.003195793,-0.002130529,0.234630566,0.009576758,9.816176758,1719786227,2249,1719786226,974799000,world,-2.074266967,-1.915737571,0.136679232,0.013139662,-0.010118151,-0.004711176,0.999851378
1719786226,1719786226,359302955,-0.002130529,0,-0.002130529,0.225053809,0.004788379,9.8066,1719786227,2250,1719786226,984914000,world,-2.074280536,-1.915761222,0.136682472,0.013132393,-0.0101284,-0.004696509,0.999851438
1719786226,1719786226,366760044,0,-0.002130529,0,0.225053809,0.014365137,9.811388379,1719786227,2251,1719786226,994146000,world,-2.074284809,-1.91579084,0.136682851,0.013136381,-0.010127922,-0.004705263,0.99985135
1719786226,1719786226,374230252,-0.001065264,-0.002130529,-0.002130529,0.22026543,0.004788379,9.811388379,1719786227,2252,1719786227,5466000,world,-2.074275505,-1.915793214,0.136667184,0.013134235,-0.010137651,-0.004668125,0.999851453
1719786226,1719786226,381764396,0,-0.001065264,0.001065264,0.205900293,0,9.820965137,1719786227,2253,1719786227,14437000,world,-2.074278243,-1.915785631,0.136667465,0.013150493,-0.010105729,-0.004687802,0.999851471
1719786226,1719786226,389236684,-0.001065264,0,0,0.22026543,0,9.811388379,1719786227,2254,1719786227,24599000,world,-2.074279087,-1.915762208,0.136680787,0.013155982,-0.010110644,-0.004700926,0.999851287
1719786226,1719786226,396765548,0,-0.004261058,0.001065264,0.225053809,0,9.816176758,1719786227,2255,1719786227,35241000,world,-2.074276536,-1.915761345,0.136685359,0.013178817,-0.010087814,-0.004704326,0.999851201
1719786226,1719786226,404235340,-0.003195793,-0.001065264,0.001065264,0.22026543,0,9.825753516,1719786227,2256,1719786227,44166000,world,-2.074282957,-1.915781027,0.136688556,0.013151733,-0.010113222,-0.004690595,0.999851365
1719786226,1719786226,411738828,0,0,-0.005326322,0.225053809,-0.004788379,9.825753516,1719786227,2257,1719786227,54501000,world,-2.074278025,-1.915780425,0.136684408,0.013163562,-0.010141682,-0.004678074,0.99985098
1719786226,1719786226,419292780,0,-0.001065264,-0.002130529,0.234630566,0,9.825753516,1719786227,2258,1719786227,64288000,world,-2.074274274,-1.91576342,0.136655846,0.013148065,-0.010134244,-0.004685053,0.999851227
1719786226,1719786226,426744076,0,-0.002130529,-0.002130529,0.210688672,0.009576758,9.825753516,1719786227,2259,1719786227,74697000,world,-2.074273421,-1.915754791,0.136667375,0.013160544,-0.010107095,-0.004700062,0.999851267
1719786226,1719786226,434232748,0.002130529,0,-0.001065264,0.215477051,0.009576758,9.825753516,1719786227,2260,1719786227,84553000,world,-2.074275485,-1.915762133,0.136682184,0.013152929,-0.01014391,-0.004690273,0.99985104
1719786226,1719786226,441740908,-0.001065264,-0.001065264,-0.001065264,0.215477051,0.004788379,9.830541895,1719786227,2261,1719786227,94472000,world,-2.074282316,-1.915771946,0.136676564,0.013154431,-0.010149804,-0.004681573,0.999851002
1719786226,1719786226,449236396,-0.001065264,0.002130529,-0.003195793,0.234630566,0,9.811388379,1719786227,2262,1719786227,104786000,world,-2.074279794,-1.915777825,0.136675732,0.013158874,-0.010134207,-0.004670501,0.999851153
1719786226,1719786226,456783276,0.005326322,-0.001065264,0.002130529,0.215477051,0,9.811388379,1719786227,2263,1719786227,114572000,world,-2.074275546,-1.915762357,0.136673533,0.013147484,-0.010134211,-0.004689106,0.999851216
1719786226,1719786226,464235660,0,-0.002130529,-0.002130529,0.205900293,0.004788379,9.816176758,1719786227,2264,1719786227,124303000,world,-2.074287106,-1.915761307,0.136684878,0.013155037,-0.010122883,-0.004695612,0.999851201
1719786226,1719786226,471743948,0.001065264,-0.002130529,0,0.22026543,0.004788379,9.811388379,1719786227,2265,1719786227,134381000,world,-2.074279605,-1.915746314,0.136690342,0.013153834,-0.010106832,-0.004698891,0.999851363
1719786226,1719786226,479233132,-0.002130529,0.002130529,0.001065264,0.225053809,0.004788379,9.811388379,1719786227,2266,1719786227,144497000,world,-2.074277553,-1.915732038,0.136680251,0.013155742,-0.010094746,-0.004706246,0.999851426
1719786226,1719786226,486761100,0,-0.002130529,0,0.229842188,0.009576758,9.811388379,1719786227,2267,1719786227,155101000,world,-2.074285687,-1.915766915,0.136679932,0.013139326,-0.010113609,-0.004687961,0.999851537
1719786226,1719786226,494237772,-0.001065264,-0.001065264,-0.001065264,0.229842188,0,9.816176758,1719786227,2268,1719786227,164251000,world,-2.07428797,-1.915780187,0.136681431,0.013117995,-0.010143577,-0.004666895,0.999851612
1719786227,1719786226,501731180,0.001065264,-0.002130529,-0.002130529,0.234630566,0.004788379,9.816176758,1719786227,2269,1719786227,174394000,world,-2.074294788,-1.915785309,0.136691083,0.013144857,-0.010122836,-0.004693661,0.999851344
1719786227,1719786226,509305516,0.002130529,-0.003195793,-0.002130529,0.234630566,0.004788379,9.811388379,1719786227,2270,1719786227,184372000,world,-2.074296869,-1.915779774,0.136695066,0.013142834,-0.010102819,-0.004686762,0.999851606
1719786227,1719786226,516729004,-0.001065264,-0.002130529,0,0.234630566,0.004788379,9.816176758,1719786227,2271,1719786227,195000000,world,-2.074287886,-1.915756747,0.136680345,0.013122992,-0.010119793,-0.004702994,0.999851618
1719786227,1719786226,524209741,-0.001065264,-0.001065264,-0.003195793,0.234630566,0.014365137,9.820965137,1719786227,2272,1719786227,204769000,world,-2.074279382,-1.915742381,0.136639574,0.013153066,-0.010102506,-0.004702078,0.999851402
1719786227,1719786226,531744204,0,-0.001065264,0.003195793,0.234630566,0.014365137,9.820965137,1719786227,2273,1719786227,214241000,world,-2.074288399,-1.915781813,0.136656758,0.013158299,-0.010148783,-0.004672227,0.999851005
1719786227,1719786226,539259660,0,-0.001065264,-0.001065264,0.234630566,0.004788379,9.811388379,1719786227,2274,1719786227,224782000,world,-2.074288445,-1.915797172,0.136683344,0.013137649,-0.010131082,-0.004674919,0.999851443
1719786227,1719786226,546725005,-0.001065264,0,0,0.234630566,-0.009576758,9.811388379,1719786227,2275,1719786227,238459000,world,-2.074279035,-1.915761604,0.13667728,0.013141916,-0.010103455,-0.004686285,0.999851613
1719786227,1719786226,554224077,0,0,-0.002130529,0.225053809,-0.009576758,9.820965137,1719786227,2276,1719786227,248264000,world,-2.074289493,-1.915751275,0.136671251,0.013120229,-0.010100374,-0.004690372,0.99985191
1719786227,1719786226,561732749,-0.002130529,-0.002130529,-0.001065264,0.225053809,-0.009576758,9.820965137,1719786227,2277,1719786227,255702000,world,-2.074297492,-1.915757599,0.136677882,0.013137283,-0.010108594,-0.004682041,0.999851642
1719786227,1719786226,569204269,-0.002130529,0,0,0.22026543,0.004788379,9.825753516,1719786227,2278,1719786227,264022000,world,-2.074284312,-1.915758555,0.136665496,0.01313626,-0.010081329,-0.004671421,0.999851981
1719786227,1719786226,576743597,-0.001065264,0,-0.003195793,0.22026543,0.009576758,9.830541895,1719786227,2279,1719786227,275874000,world,-2.074288233,-1.915781722,0.136674004,0.013115949,-0.010138985,-0.00469049,0.999851575
1719786227,1719786226,584220717,-0.001065264,0,-0.001065264,0.229842188,0.009576758,9.835330273,1719786227,2280,1719786227,284069000,world,-2.074286479,-1.915777487,0.136699857,0.013135414,-0.01012158,-0.004703041,0.999851437
1719786227,1719786226,591755853,0,-0.002130529,-0.002130529,0.229842188,0.009576758,9.830541895,1719786227,2281,1719786227,294063000,world,-2.074279909,-1.9157659,0.136708892,0.013109111,-0.010111277,-0.004698064,0.99985191
1719786227,1719786226,599248013,-0.001065264,0,0.001065264,0.225053809,0.004788379,9.816176758,1719786227,2282,1719786227,305348000,world,-2.074277236,-1.91574142,0.136711305,0.013112657,-0.010063719,-0.004679489,0.99985243
1719786227,1719786226,606720557,0,-0.001065264,0,0.225053809,0.004788379,9.816176758,1719786227,2283,1719786227,313978000,world,-2.07427345,-1.915729257,0.136702561,0.013112579,-0.010087479,-0.004709739,0.99985205
1719786227,1719786226,614201325,-0.002130529,-0.002130529,-0.001065264,0.244207324,0,9.816176758,1719786227,2284,1719786227,326399000,world,-2.07428802,-1.91577792,0.136687338,0.013117215,-0.010134808,-0.004679429,0.999851653
1719786227,1719786226,621720653,0,-0.004261058,0.002130529,0.225053809,0,9.816176758,1719786227,2285,1719786227,334538000,world,-2.074297353,-1.915780719,0.136682814,0.013152322,-0.010129515,-0.00468795,0.999851205
1719786227,1719786226,629217517,0,0,-0.002130529,0.22026543,0.004788379,9.825753516,1719786227,2286,1719786227,344059000,world,-2.074287916,-1.915768611,0.136700125,0.013135399,-0.01012814,-0.004689074,0.999851436
1719786227,1719786226,636744493,0,0,-0.004261058,0.225053809,0.004788379,9.835330273,1719786227,2287,1719786227,355927000,world,-2.074287657,-1.915755102,0.136720814,0.013128203,-0.010087479,-0.004703296,0.999851875
1719786227,1719786226,644196205,-0.002130529,-0.001065264,-0.003195793,0.225053809,0.009576758,9.816176758,1719786227,2288,1719786227,368288000,world,-2.074284703,-1.915737496,0.136710027,0.013106294,-0.010086426,-0.004663499,0.99985236
1719786227,1719786226,651720781,0,-0.002130529,0.001065264,0.22026543,0.004788379,9.811388379,1719786227,2289,1719786227,378294000,world,-2.074281274,-1.915737835,0.136662866,0.013107223,-0.010100579,-0.004691079,0.999852075
1719786227,1719786226,659204397,-0.001065264,-0.001065264,0,0.229842188,0.004788379,9.801811621,1719786227,2290,1719786227,385829000,world,-2.074287656,-1.915763364,0.13665981,0.013108378,-0.010110522,-0.004660162,0.999852104
1719786227,1719786226,666704557,-0.001065264,0,0.001065264,0.239418945,0.009576758,9.816176758,1719786227,2291,1719786227,394711000,world,-2.074281266,-1.915788625,0.136686327,0.01309947,-0.010135138,-0.004661572,0.999851965
1719786227,1719786226,674208141,-0.001065264,0.001065264,-0.003195793,0.225053809,0.014365137,9.830541895,1719786227,2292,1719786227,405717000,world,-2.074284345,-1.915763404,0.136681596,0.013133915,-0.010091743,-0.004704331,0.999851752
1719786227,1719786226,681714349,0,-0.001065264,-0.002130529,0.225053809,0.009576758,9.816176758,1719786227,2293,1719786227,414084000,world,-2.074284332,-1.915749009,0.13669615,0.013129115,-0.010095308,-0.004705555,0.999851773
1719786227,1719786226,689203501,-0.001065264,-0.001065264,-0.001065264,0.229842188,0.014365137,9.820965137,1719786227,2294,1719786227,424485000,world,-2.07429307,-1.915756155,0.136708874,0.013126753,-0.010083101,-0.004691098,0.999851996
1719786227,1719786226,696756237,-0.001065264,-0.002130529,-0.003195793,0.225053809,0.009576758,9.825753516,1719786227,2295,1719786227,434790000,world,-2.074293116,-1.915775228,0.13668037,0.013139613,-0.010104785,-0.004678574,0.999851666
1719786227,1719786226,704197581,-0.001065264,-0.001065264,-0.002130529,0.225053809,0.014365137,9.830541895,1719786227,2296,1719786227,444346000,world,-2.074292046,-1.91579892,0.136678942,0.013115304,-0.010141505,-0.004678006,0.999851616
1719786227,1719786226,711818061,0.003195793,-0.001065264,0,0.239418945,0.009576758,9.820965137,1719786227,2297,1719786227,454666000,world,-2.074295744,-1.915782239,0.136713305,0.013115765,-0.010130819,-0.004681762,0.999851701
1719786227,1719786226,719187310,-0.001065264,-0.001065264,-0.003195793,0.229842188,0.014365137,9.811388379,1719786227,2298,1719786227,464748000,world,-2.074287897,-1.915733471,0.136709024,0.013141455,-0.010077986,-0.004677088,0.99985192
1719786227,1719786226,726702094,-0.002130529,0.001065264,-0.003195793,0.22026543,0.009576758,9.816176758,1719786227,2299,1719786227,474958000,world,-2.074273517,-1.915714615,0.136696602,0.01311424,-0.010060594,-0.004717399,0.999852263
1719786227,1719786226,734200174,0.001065264,-0.002130529,-0.002130529,0.225053809,0,9.820965137,1719786227,2300,1719786227,484606000,world,-2.074292604,-1.915780061,0.136704059,0.013124642,-0.010104453,-0.004695071,0.999851789
1719786227,1719786226,741713518,0,0.001065264,-0.001065264,0.22026543,0,9.816176758,1719786227,2301,1719786227,494283000,world,-2.074289381,-1.915824629,0.136695834,0.013124771,-0.01014179,-0.004691576,0.999851426
1719786227,1719786226,749188750,-0.001065264,-0.001065264,-0.002130529,0.225053809,0,9.820965137,1719786227,2302,1719786227,504926000,world,-2.074280504,-1.915803875,0.136688768,0.013126411,-0.010150898,-0.004687489,0.999851331
1719786227,1719786226,756718990,-0.002130529,-0.002130529,0,0.22026543,0,9.816176758,1719786227,2303,1719786227,514719000,world,-2.074289047,-1.915763798,0.136708195,0.013160057,-0.010112729,-0.004700468,0.999851215
1719786227,1719786226,764198702,0.002130529,-0.003195793,-0.001065264,0.229842188,-0.004788379,9.816176758,1719786227,2304,1719786227,524437000,world,-2.074290566,-1.915727036,0.136716614,0.013129784,-0.010052156,-0.004724787,0.999852109
1719786227,1719786226,771694574,-0.001065264,-0.002130529,0,0.229842188,0.004788379,9.825753516,1719786228,2305,1719786227,534308000,world,-2.074278716,-1.915742264,0.136678759,0.013139011,-0.010100283,-0.004726455,0.999851495
1719786227,1719786226,779204014,-0.002130529,0,-0.001065264,0.234630566,0.009576758,9.830541895,1719786228,2306,1719786227,544331000,world,-2.074283893,-1.91579888,0.136674649,0.013145824,-0.010125147,-0.004689868,0.999851326
1719786227,1719786226,789214691,-0.002130529,-0.001065264,-0.002130529,0.22026543,0.004788379,9.840118652,1719786228,2307,1719786227,554885000,world,-2.074284795,-1.91582416,0.136702923,0.01314244,-0.010161435,-0.004673104,0.999851081
1719786227,1719786226,794195822,-0.003195793,0,0,0.215477051,0,9.825753516,1719786228,2308,1719786227,564881000,world,-2.074283719,-1.915802862,0.136717215,0.013133315,-0.010156355,-0.004689279,0.999851177
1719786227,1719786226,801712142,0,-0.001065264,-0.002130529,0.234630566,0,9.840118652,1719786228,2309,1719786227,574092000,world,-2.074272489,-1.915740718,0.136705637,0.0131328,-0.010145315,-0.004715116,0.999851174
1719786227,1719786226,809195086,-0.002130529,-0.001065264,-0.002130529,0.239418945,0.004788379,9.844907031,1719786228,2310,1719786227,584415000,world,-2.074263252,-1.915716373,0.136681296,0.013121695,-0.010100685,-0.004735164,0.999851677
1719786227,1719786226,816699118,-0.001065264,-0.002130529,-0.002130529,0.229842188,0.004788379,9.840118652,1719786228,2311,1719786227,594912000,world,-2.074272829,-1.915768462,0.13667458,0.013133675,-0.010132456,-0.004717609,0.999851281
1719786227,1719786226,824194254,0,0.001065264,-0.001065264,0.244207324,0.014365137,9.820965137,1719786228,2312,1719786227,604880000,world,-2.074284117,-1.91581534,0.136687073,0.013155043,-0.010177584,-0.004685254,0.999850694
1719786227,1719786226,831714734,-0.001065264,0.001065264,-0.002130529,0.229842188,0.004788379,9.820965137,1719786228,2313,1719786227,614395000,world,-2.074283348,-1.915787963,0.136695416,0.013112627,-0.010176772,-0.004696128,0.999851208
1719786227,1719786226,839198286,-0.002130529,0,0,0.229842188,0.014365137,9.830541895,1719786228,2314,1719786227,624248000,world,-2.074275269,-1.915744856,0.136734813,0.013167992,-0.010107712,-0.004704988,0.99985114
1719786227,1719786226,846703310,0,-0.001065264,0.001065264,0.239418945,0.014365137,9.816176758,1719786228,2315,1719786227,638592000,world,-2.074280451,-1.915715724,0.136732208,0.013141878,-0.010047237,-0.004733538,0.999851958
1719786227,1719786226,854196014,-0.001065264,-0.001065264,0,0.225053809,0.009576758,9.8066,1719786228,2316,1719786227,647969000,world,-2.074285331,-1.915753806,0.136686139,0.013159642,-0.01006605,-0.004719158,0.999851603
1719786227,1719786226,861709774,-0.001065264,-0.001065264,-0.002130529,0.215477051,0.009576758,9.811388379,1719786228,2317,1719786227,656037000,world,-2.074288964,-1.915799458,0.136676506,0.013107051,-0.010145048,-0.004696761,0.999851601
1719786227,1719786226,869168974,0.002130529,-0.002130529,0.001065264,0.210688672,0.004788379,9.820965137,1719786228,2318,1719786227,664817000,world,-2.074285657,-1.91580283,0.136682364,0.013148956,-0.010152006,-0.004678111,0.999851067
1719786227,1719786226,876696270,0,-0.001065264,-0.001065264,0.22026543,0,9.8066,1719786228,2319,1719786227,674720000,world,-2.07427665,-1.915752088,0.136692683,0.013152821,-0.010117105,-0.004691983,0.999851305
1719786227,1719786226,884195694,0.002130529,0,0.001065264,0.22026543,-0.004788379,9.820965137,1719786228,2320,1719786227,684263000,world,-2.074288521,-1.915751805,0.13670248,0.01311074,-0.010095204,-0.004714027,0.999851976
1719786227,1719786226,891703470,0.001065264,-0.002130529,0.001065264,0.215477051,0.004788379,9.825753516,1719786228,2321,1719786227,693965000,world,-2.074292023,-1.915783434,0.136725076,0.01309196,-0.010057644,-0.004714707,0.999852597
1719786227,1719786226,899177966,-0.002130529,0.002130529,-0.002130529,0.215477051,-0.004788379,9.820965137,1719786228,2322,1719786227,705741000,world,-2.074282698,-1.915783003,0.13670883,0.013131232,-0.01008339,-0.004698631,0.999851898
1719786227,1719786226,906700302,0.003195793,-0.002130529,0,0.215477051,-0.014365137,9.8066,1719786228,2323,1719786227,714390000,world,-2.074283479,-1.915801798,0.136690871,0.013113315,-0.010149275,-0.004690212,0.999851507
1719786227,1719786226,914197262,0,-0.003195793,-0.001065264,0.210688672,0.004788379,9.8066,1719786228,2324,1719786227,725417000,world,-2.074279132,-1.915777347,0.136698648,0.013118061,-0.010140968,-0.004688272,0.999851538
1719786227,1719786226,921673039,-0.002130529,-0.001065264,-0.001065264,0.22026543,0.009576758,9.797023242,1719786228,2325,1719786227,734556000,world,-2.074272816,-1.915749604,0.136705097,0.013100126,-0.010085658,-0.004701447,0.99985227
1719786227,1719786226,929168591,-0.001065264,-0.002130529,-0.001065264,0.225053809,0.014365137,9.8066,1719786228,2326,1719786227,744262000,world,-2.074263629,-1.915753431,0.136716564,0.013117883,-0.010051681,-0.00471633,0.99985231
1719786227,1719786226,936684367,0.001065264,0,-0.002130529,0.229842188,0.009576758,9.8066,1719786228,2327,1719786227,755782000,world,-2.074266284,-1.915775136,0.136719441,0.01309701,-0.010136622,-0.004712484,0.999851744
1719786227,1719786226,944178127,-0.001065264,-0.001065264,0,0.234630566,0.004788379,9.8066,1719786228,2328,1719786227,763992000,world,-2.0742719,-1.915788969,0.136714274,0.013129833,-0.010188596,-0.004693997,0.999850872
1719786227,1719786226,951685679,0.001065264,0.002130529,0,0.234630566,0.014365137,9.797023242,1719786228,2329,1719786227,774547000,world,-2.074266738,-1.91576272,0.136717672,0.013124832,-0.010179164,-0.004667272,0.999851159
1719786227,1719786226,959170735,-0.002130529,-0.003195793,-0.001065264,0.229842188,0.014365137,9.801811621,1719786228,2330,1719786227,784426000,world,-2.07426164,-1.915727352,0.136729066,0.013141849,-0.010117176,-0.004695995,0.99985143
1719786227,1719786226,966675407,0.001065264,0,0,0.234630566,0.004788379,9.825753516,1719786228,2331,1719786227,794171000,world,-2.074275182,-1.915728522,0.136729065,0.013125908,-0.010103469,-0.004684823,0.99985183
1719786227,1719786226,974161295,0.001065264,0.001065264,-0.001065264,0.215477051,0,9.820965137,1719786228,2332,1719786227,805900000,world,-2.074286401,-1.915750171,0.136718997,0.013140314,-0.01011242,-0.004701741,0.999851471
1719786227,1719786226,981677519,-0.001065264,0,0,0.225053809,0.004788379,9.820965137,1719786228,2333,1719786227,818374000,world,-2.074289202,-1.915805954,0.136714141,0.013134215,-0.010132133,-0.004662085,0.999851538
1719786227,1719786226,989155535,-0.001065264,-0.002130529,-0.004261058,0.22026543,0.004788379,9.801811621,1719786228,2334,1719786227,828397000,world,-2.074284296,-1.915810909,0.136696292,0.01316475,-0.010143408,-0.004666425,0.999851001
1719786227,1719786226,996683535,-0.002130529,-0.003195793,-0.001065264,0.215477051,0.009576758,9.820965137,1719786228,2335,1719786227,836049000,world,-2.074275586,-1.915789651,0.136718275,0.013118947,-0.010117946,-0.00468121,0.999851792
1719786227,1719786227,4174991,0.001065264,-0.003195793,-0.001065264,0.229842188,0.014365137,9.811388379,1719786228,2336,1719786227,844775000,world,-2.074280707,-1.915769428,0.136720997,0.013119864,-0.010084774,-0.00470702,0.999851994
1719786227,1719786227,11676306,0.001065264,-0.001065264,-0.003195793,0.225053809,0.014365137,9.820965137,1719786228,2337,1719786227,856012000,world,-2.07427381,-1.915749779,0.136715563,0.013146699,-0.01007973,-0.004740399,0.999851535
1719786227,1719786227,19163860,-0.001065264,0.001065264,-0.003195793,0.22026543,0.014365137,9.816176758,1719786228,2338,1719786227,864151000,world,-2.074275065,-1.91578132,0.136711025,0.013139603,-0.010102265,-0.004711481,0.999851537
1719786227,1719786227,26740181,0.001065264,-0.002130529,-0.002130529,0.215477051,0,9.820965137,1719786228,2339,1719786227,874730000,world,-2.074277713,-1.915809685,0.136703188,0.01314469,-0.010146778,-0.004687946,0.999851131
1719786227,1719786227,34171128,-0.001065264,-0.002130529,0,0.229842188,0,9.816176758,1719786228,2340,1719786227,884659000,world,-2.074286421,-1.915818503,0.136712485,0.013119815,-0.010136988,-0.004689849,0.999851548
1719786227,1719786227,41676570,0.002130529,-0.001065264,-0.002130529,0.22026543,-0.009576758,9.816176758,1719786228,2341,1719786227,894630000,world,-2.074296227,-1.915797384,0.136735504,0.013137431,-0.010085262,-0.004706355,0.999851762
1719786227,1719786227,49171516,-0.001065264,-0.001065264,-0.001065264,0.22026543,-0.004788379,9.820965137,1719786228,2342,1719786227,909206000,world,-2.074290463,-1.915777074,0.13674173,0.01311963,-0.010076722,-0.004695975,0.99985213
1719786227,1719786227,56674110,0.001065264,-0.003195793,-0.003195793,0.201111914,0.004788379,9.820965137,1719786228,2343,1719786227,917198000,world,-2.074281946,-1.91577006,0.136720131,0.013131169,-0.010110895,-0.00470613,0.999851586
1719786227,1719786227,64161408,0.001065264,-0.003195793,0,0.22026543,0.004788379,9.825753516,1719786228,2344,1719786227,925866000,world,-2.074291943,-1.915789393,0.136708804,0.013130121,-0.010105393,-0.004675946,0.999851797
1719786227,1719786227,71678754,-0.002130529,0.001065264,-0.003195793,0.239418945,0.004788379,9.835330273,1719786228,2345,1719786227,934645000,world,-2.074294514,-1.915808716,0.13671876,0.013100219,-0.010119586,-0.00466652,0.99985209
1719786227,1719786227,79296771,0.001065264,-0.001065264,0,0.225053809,0.004788379,9.830541895,1719786228,2346,1719786227,944556000,world,-2.074284035,-1.915784562,0.136737621,0.013134122,-0.010111344,-0.004688631,0.999851625
1719786227,1719786227,86672998,0,0,0,0.22026543,0.004788379,9.835330273,1719786228,2347,1719786227,958160000,world,-2.074287443,-1.915769209,0.136763476,0.013131842,-0.010075031,-0.00470287,0.999851955
1719786227,1719786227,94159944,0,0.002130529,0,0.22026543,-0.004788379,9.830541895,1719786228,2348,1719786227,966381000,world,-2.074280374,-1.915754907,0.136746203,0.013118297,-0.010057487,-0.004696329,0.99985234
1719786227,1719786227,101674570,0,0,-0.002130529,0.225053809,-0.004788379,9.816176758,1719786228,2349,1719786227,974849000,world,-2.074288098,-1.915768109,0.136706471,0.013128853,-0.010116505,-0.004699108,0.999851593
1719786227,1719786227,109170444,-0.001065264,-0.001065264,-0.004261058,0.22026543,0,9.820965137,1719786228,2350,1719786227,984351000,world,-2.074285004,-1.915791646,0.136697284,0.013109049,-0.010166728,-0.004676315,0.99985145
1719786227,1719786227,116665294,-0.001065264,-0.001065264,0.001065264,0.229842188,0.009576758,9.820965137,1719786228,2351,1719786227,994814000,world,-2.074293489,-1.915789846,0.136705369,0.013144721,-0.010115817,-0.004684086,0.999851462
1719786227,1719786227,124151184,-0.001065264,0,-0.004261058,0.234630566,0.009576758,9.816176758,1719786228,2352,1719786228,5245000,world,-2.074283101,-1.915765308,0.136717283,0.013124673,-0.010087106,-0.00469143,0.999851981
1719786227,1719786227,131686386,-0.002130529,-0.003195793,-0.002130529,0.248995703,0.004788379,9.8066,1719786228,2353,1719786228,14581000,world,-2.07428555,-1.915764338,0.136746496,0.013127439,-0.01008208,-0.004715784,0.999851881
1719786227,1719786227,139192628,0,-0.002130529,0.001065264,0.239418945,0.019153516,9.830541895,1719786228,2354,1719786228,24209000,world,-2.074282859,-1.91578573,0.136742092,0.013120572,-0.010070565,-0.004695861,0.999852181
1719786227,1719786227,146652374,-0.001065264,-0.001065264,-0.002130529,0.215477051,0.009576758,9.825753516,1719786228,2355,1719786228,34435000,world,-2.07427854,-1.91578363,0.13670065,0.013115648,-0.010090652,-0.004686591,0.999852086
1719786227,1719786227,154146424,-0.002130529,0,0,0.210688672,0.004788379,9.816176758,1719786228,2356,1719786228,44387000,world,-2.074280638,-1.915781393,0.136673615,0.013137697,-0.01012449,-0.004688978,0.999851444
1719786227,1719786227,161654618,0,-0.003195793,-0.001065264,0.225053809,0.014365137,9.811388379,1719786228,2357,1719786228,55322000,world,-2.074284654,-1.915775181,0.136690378,0.013120452,-0.010102366,-0.004674314,0.999851962
1719786227,1719786227,169143708,0.001065264,-0.002130529,0,0.225053809,0.009576758,9.820965137,1719786228,2358,1719786228,64152000,world,-2.074278323,-1.915756114,0.136704977,0.013098734,-0.01008635,-0.004710461,0.999852239
1719786227,1719786227,176673438,0,-0.001065264,0,0.229842188,0.009576758,9.825753516,1719786228,2359,1719786228,74655000,world,-2.074270343,-1.915768092,0.136724937,0.013106947,-0.010106451,-0.004699649,0.999851979
1719786227,1719786227,184175616,0.001065264,0,-0.001065264,0.225053809,0.004788379,9.816176758,1719786228,2360,1719786228,84384000,world,-2.074279353,-1.915780745,0.136719513,0.013143479,-0.010094713,-0.004674731,0.999851735
1719786227,1719786227,191646114,-0.002130529,0.001065264,-0.002130529,0.234630566,0.009576758,9.820965137,1719786228,2361,1719786228,94665000,world,-2.074282774,-1.915770637,0.136692365,0.013105458,-0.010108701,-0.004661266,0.999852156
1719786227,1719786227,199155236,0.001065264,-0.002130529,0.001065264,0.229842188,0.004788379,9.811388379,1719786228,2362,1719786228,105386000,world,-2.07427532,-1.915779577,0.136702551,0.013116352,-0.010120807,-0.004690638,0.999851753
1719786227,1719786227,206649382,-0.003195793,0.001065264,0.001065264,0.225053809,0.009576758,9.825753516,1719786228,2363,1719786228,114525000,world,-2.074264995,-1.915761509,0.136716724,0.013089395,-0.010124971,-0.004691709,0.999852059
1719786227,1719786227,214180488,-0.002130529,-0.001065264,-0.003195793,0.22026543,0.009576758,9.825753516,1719786228,2364,1719786228,125026000,world,-2.074264307,-1.915759895,0.136719286,0.013114196,-0.010111621,-0.004706961,0.999851798
1719786227,1719786227,229167084,-0.001065264,0.001065264,-0.002130529,0.22026543,0,9.820965137,1719786228,2365,1719786228,134561000,world,-2.074272535,-1.915783465,0.136718699,0.013084266,-0.010119222,-0.004688939,0.999852198
1719786227,1719786227,236643790,-0.001065264,0,-0.003195793,0.229842188,0.004788379,9.811388379,1719786228,2366,1719786228,144139000,world,-2.074275892,-1.915783988,0.136718308,0.013095303,-0.010132361,-0.004693519,0.999851899
1719786227,1719786227,244129040,-0.002130529,-0.001065264,-0.002130529,0.225053809,0.004788379,9.816176758,1719786228,2367,1719786228,156056000,world,-2.074273121,-1.915794126,0.136720293,0.013104406,-0.010163762,-0.004704843,0.999851407
1719786227,1719786227,251657330,0,-0.001065264,-0.003195793,0.225053809,-0.004788379,9.820965137,1719786228,2368,1719786228,168642000,world,-2.074267334,-1.915747494,0.136715995,0.01316436,-0.010111566,-0.0046883,0.999851227
1719786227,1719786227,259311220,0.001065264,0.001065264,-0.002130529,0.215477051,0,9.830541895,1719786228,2369,1719786228,178711000,world,-2.074263886,-1.91571335,0.136708192,0.013153241,-0.010054693,-0.004694767,0.999851916
1719786227,1719786227,266644918,-0.001065264,0,-0.002130529,0.225053809,0.009576758,9.820965137,1719786228,2370,1719786228,185576000,world,-2.074275667,-1.915742387,0.136730479,0.013133169,-0.010078305,-0.004690312,0.999851963
1719786227,1719786227,274136056,-0.002130529,0.001065264,0.001065264,0.234630566,0.019153516,9.825753516,1719786228,2371,1719786228,194816000,world,-2.074272116,-1.915770843,0.136745948,0.013145751,-0.010106428,-0.004688306,0.999851524
1719786227,1719786227,281632923,0,0.001065264,-0.001065264,0.225053809,0.014365137,9.830541895,1719786228,2372,1719786228,205350000,world,-2.074265059,-1.915774236,0.136725946,0.013170367,-0.010107042,-0.004700631,0.999851136
1719786227,1719786227,289171100,0,0.001065264,0,0.225053809,0.004788379,9.825753516,1719786228,2373,1719786228,214281000,world,-2.074263207,-1.915766658,0.136715603,0.013147352,-0.010119088,-0.004703734,0.999851302
1719786227,1719786227,296626591,0.001065264,-0.001065264,0.001065264,0.22026543,-0.004788379,9.825753516,1719786228,2374,1719786228,224103000,world,-2.074277328,-1.915773347,0.136757084,0.013145665,-0.010098863,-0.004703117,0.999851532
1719786227,1719786227,304119937,-0.001065264,0.001065264,0.002130529,0.22026543,0.004788379,9.816176758,1719786228,2375,1719786228,234712000,world,-2.074279803,-1.915742329,0.136748242,0.013116896,-0.01008461,-0.00471171,0.999852013
1719786227,1719786227,311631715,0,-0.001065264,-0.003195793,0.234630566,0.004788379,9.830541895,1719786228,2376,1719786228,244077000,world,-2.074283927,-1.915738279,0.136732086,0.013107163,-0.010102807,-0.004703196,0.999851997
1719786227,1719786227,319138533,0.002130529,-0.001065264,-0.002130529,0.234630566,-0.009576758,9.825753516,1719786228,2377,1719786228,256032000,world,-2.074286776,-1.915776009,0.13675203,0.013106879,-0.010109313,-0.004664097,0.999852118
1719786227,1719786227,326633895,0.002130529,-0.002130529,-0.001065264,0.215477051,-0.004788379,9.830541895,1719786228,2378,1719786228,264754000,world,-2.074281968,-1.915754966,0.136754442,0.013125338,-0.010091652,-0.004686103,0.999851951
1719786227,1719786227,334117641,0,0,-0.001065264,0.225053809,-0.004788379,9.830541895,1719786228,2379,1719786228,274842000,world,-2.074270294,-1.91573858,0.136748492,0.013146631,-0.010097683,-0.004687261,0.999851605
1719786227,1719786227,341632139,-0.001065264,-0.003195793,-0.001065264,0.234630566,-0.004788379,9.820965137,1719786228,2380,1719786228,284475000,world,-2.074277281,-1.915763498,0.136760319,0.013165602,-0.010122388,-0.00469918,0.99985105
1719786227,1719786227,349114861,-0.002130529,0.001065264,0,0.22026543,0.009576758,9.825753516,1719786228,2381,1719786228,294508000,world,-2.074280758,-1.915772153,0.136747179,0.01314655,-0.01013797,-0.004693119,0.999851171
1719786227,1719786227,356630511,0,-0.003195793,-0.002130529,0.225053809,0.004788379,9.820965137,1719786228,2382,1719786228,304869000,world,-2.074284183,-1.91576903,0.136716253,0.013133374,-0.01016151,-0.004702572,0.999851061
1719786227,1719786227,364120913,-0.002130529,-0.001065264,0,0.225053809,0,9.816176758,1719786228,2383,1719786228,315221000,world,-2.07427375,-1.915761282,0.136704094,0.013155226,-0.010145878,-0.004666504,0.999851101
1719786227,1719786227,371628531,-0.002130529,-0.001065264,-0.003195793,0.225053809,0.004788379,9.820965137,1719786228,2384,1719786228,324502000,world,-2.07426861,-1.915776017,0.136728233,0.013122586,-0.010133778,-0.004697141,0.99985151
1719786227,1719786227,379119093,0.001065264,-0.001065264,-0.003195793,0.234630566,-0.004788379,9.825753516,1719786228,2385,1719786228,334327000,world,-2.074282306,-1.915769839,0.136715476,0.013128526,-0.010153508,-0.004688926,0.99985127
1719786227,1719786227,386645655,0,-0.002130529,-0.003195793,0.229842188,-0.004788379,9.820965137,1719786228,2386,1719786228,344311000,world,-2.074281403,-1.915758436,0.136723642,0.01312285,-0.010116793,-0.004697648,0.999851676
1719786227,1719786227,394114905,-0.001065264,0.001065264,-0.002130529,0.229842188,0.004788379,9.820965137,1719786228,2387,1719786228,354963000,world,-2.074282884,-1.915776791,0.136729041,0.013119386,-0.010156772,-0.004690774,0.999851348
1719786227,1719786227,401624987,-0.001065264,-0.001065264,-0.002130529,0.239418945,0.009576758,9.816176758,1719786228,2388,1719786228,364445000,world,-2.074273852,-1.915776183,0.136709943,0.013107349,-0.010176444,-0.004698909,0.999851268
1719786227,1719786227,409110941,-0.002130529,0,-0.001065264,0.234630566,0,9.820965137,1719786228,2389,1719786228,374365000,world,-2.074268327,-1.915762895,0.136710915,0.013152658,-0.010156244,-0.004696261,0.999850891
1719786227,1719786227,416608703,0.001065264,-0.001065264,-0.002130529,0.234630566,0.004788379,9.801811621,1719786228,2390,1719786228,384659000,world,-2.074270263,-1.91577484,0.13672851,0.013124377,-0.010172515,-0.004697482,0.999851091
1719786227,1719786227,424114241,-0.003195793,-0.001065264,-0.003195793,0.22026543,0.004788379,9.816176758,1719786228,2391,1719786228,394587000,world,-2.074264626,-1.915770549,0.136746422,0.013114839,-0.010160196,-0.004702396,0.999851318
1719786227,1719786227,431608995,0,-0.001065264,-0.004261058,0.22026543,0.004788379,9.811388379,1719786228,2392,1719786228,408533000,world,-2.074272038,-1.915750401,0.136733386,0.013144499,-0.010124522,-0.004710071,0.999851255
1719786227,1719786227,439116965,-0.001065264,-0.001065264,-0.002130529,0.215477051,0.004788379,9.830541895,1719786228,2393,1719786228,418659000,world,-2.074273776,-1.91575936,0.136723622,0.013139203,-0.010117917,-0.004698055,0.999851448
1719786227,1719786227,446611175,0.001065264,0.001065264,-0.001065264,0.234630566,0.004788379,9.825753516,1719786228,2394,1719786228,427345000,world,-2.074278707,-1.915762574,0.136732069,0.013124515,-0.010128655,-0.004681488,0.99985161
1719786227,1719786227,454113769,0.001065264,-0.002130529,-0.004261058,0.244207324,0.009576758,9.816176758,1719786228,2395,1719786228,435536000,world,-2.074277582,-1.91573979,0.136731689,0.013118435,-0.010127395,-0.004668838,0.999851761
1719786227,1719786227,461612171,0.001065264,-0.004261058,0.001065264,0.248995703,0.004788379,9.830541895,1719786228,2396,1719786228,445010000,world,-2.074274132,-1.915732121,0.136724227,0.013153409,-0.010127273,-0.0046996,0.999851159
1719786227,1719786227,469149773,-0.001065264,-0.001065264,0,0.234630566,0,9.825753516,1719786228,2397,1719786228,455236000,world,-2.074271977,-1.915753667,0.136747136,0.013105678,-0.010129006,-0.004699635,0.999851768
1719786227,1719786227,476604175,-0.004261058,0.001065264,-0.002130529,0.234630566,0,9.816176758,1719786228,2398,1719786228,464484000,world,-2.074268834,-1.915785633,0.136740794,0.013085167,-0.010191567,-0.004687535,0.999851458
1719786227,1719786227,484112753,-0.001065264,-0.001065264,-0.002130529,0.234630566,0,9.816176758,1719786228,2399,1719786228,474821000,world,-2.074262448,-1.915762465,0.136713044,0.013108861,-0.010191953,-0.00470172,0.999851077
1719786227,1719786227,491603219,0,-0.001065264,0,0.244207324,0.004788379,9.820965137,1719786228,2400,1719786228,484410000,world,-2.074261413,-1.915757672,0.136711343,0.013118264,-0.010156868,-0.004696771,0.999851334
1719786227,1719786227,499279541,-0.003195793,-0.001065264,0,0.229842188,0.009576758,9.820965137,1719786228,2401,1719786228,494133000,world,-2.07427178,-1.915748779,0.13671069,0.013111323,-0.010121405,-0.004683511,0.999851847
1719786228,1719786227,506589655,0.001065264,0.001065264,-0.002130529,0.225053809,0.009576758,9.816176758,1719786228,2402,1719786228,505315000,world,-2.0742837,-1.915748623,0.136720903,0.013122295,-0.010076369,-0.00469779,0.999852091
1719786228,1719786227,514103993,-0.002130529,0.001065264,-0.003195793,0.225053809,0.009576758,9.816176758,1719786228,2403,1719786228,514323000,world,-2.07428477,-1.915775642,0.136737133,0.013142565,-0.010112924,-0.004686523,0.999851508
1719786228,1719786227,521626619,-0.003195793,-0.001065264,0,0.239418945,0.014365137,9.820965137,1719786228,2404,1719786228,524977000,world,-2.074287624,-1.915787433,0.136721738,0.013124602,-0.010160623,-0.004705357,0.999851172
1719786228,1719786227,529115229,-0.002130529,0.001065264,-0.004261058,0.244207324,0.004788379,9.820965137,1719786229,2405,1719786228,538810000,world,-2.074280438,-1.915753039,0.136699003,0.013144768,-0.010097302,-0.004685883,0.99985164
1719786228,1719786227,536627807,-0.001065264,-0.001065264,-0.001065264,0.239418945,-0.004788379,9.830541895,1719786229,2406,1719786228,546529000,world,-2.074277618,-1.915741888,0.136715158,0.013146736,-0.010087849,-0.004709163,0.9998516
1719786228,1719786227,544117409,-0.001065264,0,-0.003195793,0.229842188,-0.004788379,9.825753516,1719786229,2407,1719786228,556159000,world,-2.074286676,-1.915767637,0.136737663,0.013127859,-0.010125644,-0.004682022,0.999851594
1719786228,1719786227,551616931,0.001065264,0,0.001065264,0.225053809,0.004788379,9.825753516,1719786229,2408,1719786228,564525000,world,-2.074286319,-1.915777188,0.136752882,0.013153123,-0.010119727,-0.004701833,0.999851229
1719786228,1719786227,559158917,-0.001065264,-0.003195793,-0.001065264,0.225053809,0,9.816176758,1719786229,2409,1719786228,574325000,world,-2.074292,-1.91576722,0.136739911,0.01310955,-0.010104315,-0.004698195,0.999851974
1719786228,1719786227,566633639,-0.001065264,-0.001065264,-0.001065264,0.215477051,-0.004788379,9.820965137,1719786229,2410,1719786228,585293000,world,-2.074293361,-1.915760817,0.136727934,0.013106863,-0.010127801,-0.00471296,0.999851702
1719786228,1719786227,574085642,-0.001065264,0,-0.001065264,0.229842188,0.004788379,9.816176758,1719786229,2411,1719786228,594158000,world,-2.074299079,-1.915777715,0.136748912,0.013113677,-0.010114568,-0.004679201,0.999851905
1719786228,1719786227,581648811,0.001065264,-0.001065264,0.001065264,0.215477051,0.009576758,9.816176758,1719786229,2412,1719786228,605861000,world,-2.074288404,-1.915768339,0.136750312,0.013112833,-0.010105243,-0.004696825,0.999851928
1719786228,1719786227,589093070,0.002130529,-0.001065264,0.002130529,0.210688672,0.004788379,9.811388379,1719786229,2413,1719786228,614710000,world,-2.074285691,-1.915774404,0.136724447,0.013111444,-0.01011664,-0.004681115,0.999851904
1719786228,1719786227,596596624,0.001065264,0.001065264,-0.004261058,0.215477051,0.004788379,9.8066,1719786229,2414,1719786228,624333000,world,-2.074292645,-1.915786572,0.136711334,0.013103409,-0.01012571,-0.004690316,0.999851875
1719786228,1719786227,604332497,0.001065264,-0.001065264,0,0.215477051,0.009576758,9.8066,1719786229,2415,1719786228,634689000,world,-2.074298251,-1.915793652,0.136710653,0.013098402,-0.010129571,-0.004678882,0.999851955
1719786228,1719786227,611600916,0.001065264,-0.003195793,-0.003195793,0.22026543,0.004788379,9.811388379,1719786229,2416,1719786228,644346000,world,-2.074287092,-1.9157788,0.136713541,0.013111813,-0.010105383,-0.004699229,0.999851928
1719786228,1719786227,619094230,-0.001065264,-0.002130529,-0.003195793,0.229842188,0,9.820965137,1719786229,2417,1719786228,655470000,world,-2.074293606,-1.915778796,0.136739607,0.013104554,-0.01010372,-0.004699891,0.999852037
1719786228,1719786227,626602296,0.002130529,0,-0.002130529,0.225053809,0.009576758,9.816176758,1719786229,2418,1719786228,665056000,world,-2.074293734,-1.915779342,0.136763699,0.013124643,-0.010095645,-0.004695256,0.999851877
1719786228,1719786227,634091482,-0.003195793,-0.002130529,0,0.225053809,0.009576758,9.811388379,1719786229,2419,1719786228,674741000,world,-2.07430669,-1.915774288,0.136730428,0.013115149,-0.010096921,-0.004680015,0.99985206
1719786228,1719786227,641600124,0,0,0,0.229842188,0.009576758,9.820965137,1719786229,2420,1719786228,684274000,world,-2.074304018,-1.915788969,0.136718217,0.013135103,-0.010089966,-0.004690622,0.999851819
1719786228,1719786227,649087934,0.002130529,-0.003195793,0.001065264,0.22026543,0,9.820965137,1719786229,2421,1719786228,694440000,world,-2.074302305,-1.915794944,0.136721751,0.013143934,-0.010102416,-0.00469356,0.999851563
1719786228,1719786227,656587232,0,-0.001065264,0,0.225053809,-0.009576758,9.825753516,1719786229,2422,1719786228,705158000,world,-2.074297241,-1.915762516,0.136718899,0.013129069,-0.010067213,-0.004692429,0.999852119
1719786228,1719786227,664091330,-0.001065264,0,-0.001065264,0.22026543,-0.004788379,9.825753516,1719786229,2423,1719786228,715101000,world,-2.074292707,-1.915755793,0.136751326,0.013111933,-0.010074363,-0.004706588,0.999852205
1719786228,1719786227,671580772,-0.002130529,-0.004261058,0.001065264,0.234630566,0.009576758,9.801811621,1719786229,2424,1719786228,724206000,world,-2.074292717,-1.915766857,0.136762171,0.013104178,-0.010057365,-0.004689624,0.999852558
1719786228,1719786227,679143270,0,-0.001065264,0,0.225053809,0.004788379,9.811388379,1719786229,2425,1719786228,734244000,world,-2.074290221,-1.915750987,0.136730124,0.013132377,-0.010058723,-0.004692862,0.999852159
1719786228,1719786227,686584872,-0.004261058,-0.002130529,0,0.22026543,0.009576758,9.811388379,1719786229,2426,1719786228,748548000,world,-2.07428758,-1.91573549,0.136719262,0.013140307,-0.010048715,-0.004688716,0.999852175
1719786228,1719786227,694086122,0.001065264,-0.002130529,-0.002130529,0.22026543,0.009576758,9.820965137,1719786229,2427,1719786228,756452000,world,-2.074296299,-1.915763047,0.136733739,0.013126913,-0.010090034,-0.004665626,0.999852043
1719786228,1719786227,701578028,0.002130529,-0.002130529,0.001065264,0.22026543,0.009576758,9.825753516,1719786229,2428,1719786228,765242000,world,-2.074298402,-1.915758938,0.136745942,0.013135514,-0.010065815,-0.004672676,0.999852141
1719786228,1719786227,709066926,-0.001065264,0,0,0.225053809,0.009576758,9.830541895,1719786229,2429,1719786228,774626000,world,-2.074298307,-1.915776187,0.136754021,0.013135727,-0.01006285,-0.004685654,0.999852107
1719786228,1719786227,716584496,0,0.002130529,0,0.22026543,0.014365137,9.825753516,1719786229,2430,1719786228,784393000,world,-2.074303121,-1.915784528,0.136725697,0.013129806,-0.010109221,-0.004677784,0.999851754
1719786228,1719786227,724085170,-0.003195793,-0.005326322,0,0.225053809,0.004788379,9.825753516,1719786229,2431,1719786228,795056000,world,-2.074295451,-1.91576877,0.136711852,0.013142385,-0.010090475,-0.004671694,0.999851807
1719786228,1719786227,731588628,-0.001065264,-0.001065264,-0.001065264,0.225053809,0.004788379,9.825753516,1719786229,2432,1719786228,808827000,world,-2.074300839,-1.915753031,0.136711631,0.013157348,-0.010063576,-0.004665725,0.999851909
1719786228,1719786227,739070614,-0.001065264,-0.002130529,-0.001065264,0.22026543,0,9.825753516,1719786229,2433,1719786228,816451000,world,-2.074301518,-1.915767466,0.136738434,0.01314691,-0.010066765,-0.004668892,0.999851999
1719786228,1719786227,746577912,-0.002130529,-0.001065264,0,0.225053809,0,9.816176758,1719786229,2434,1719786228,825865000,world,-2.074304324,-1.915781124,0.136756515,0.013106718,-0.01009247,-0.00467951,0.999852218
1719786228,1719786227,754062938,-0.002130529,-0.001065264,0,0.225053809,0.004788379,9.816176758,1719786229,2435,1719786228,834852000,world,-2.074292603,-1.91578075,0.136743426,0.01309225,-0.010110725,-0.004675606,0.999852242
1719786228,1719786227,761586652,0.002130529,-0.003195793,0,0.215477051,0.004788379,9.8066,1719786229,2436,1719786228,844863000,world,-2.074287369,-1.915779884,0.136741193,0.013135766,-0.010089355,-0.004677884,0.999851876
1719786228,1719786227,769058398,-0.002130529,-0.003195793,0.001065264,0.22026543,0.004788379,9.811388379,1719786229,2437,1719786228,858732000,world,-2.074289217,-1.915791427,0.136749276,0.013111684,-0.010106599,-0.004666456,0.999852071
1719786228,1719786227,779072822,0,-0.002130529,0,0.229842188,0.014365137,9.820965137,1719786229,2438,1719786228,866521000,world,-2.074281742,-1.915774829,0.136755884,0.013119356,-0.010095696,-0.004705863,0.999851896
1719786228,1719786227,784063778,0.001065264,-0.002130529,-0.001065264,0.239418945,0.019153516,9.811388379,1719786229,2439,1719786228,875307000,world,-2.074279452,-1.915769931,0.136751927,0.013122446,-0.01010905,-0.004704457,0.999851727
1719786228,1719786227,791569252,-0.003195793,0.002130529,0,0.234630566,0.009576758,9.830541895,1719786229,2440,1719786228,884444000,world,-2.074275033,-1.915786504,0.136766534,0.013113319,-0.010149008,-0.004698645,0.99985147
1719786228,1719786227,799067014,-0.004261058,0.003195793,0,0.234630566,0.004788379,9.830541895,1719786229,2441,1719786228,894213000,world,-2.074274085,-1.915799463,0.136776931,0.013132678,-0.010097351,-0.004694402,0.999851758
1719786228,1719786227,806560872,0,-0.001065264,-0.003195793,0.239418945,0.009576758,9.825753516,1719786229,2442,1719786228,909424000,world,-2.074279418,-1.915794438,0.136761986,0.01312928,-0.010165242,-0.004699042,0.999851093
1719786228,1719786227,814053866,0,0,0,0.22026543,0.004788379,9.825753516,1719786229,2443,1719786228,916214000,world,-2.074277835,-1.915793096,0.136763654,0.013115456,-0.010128394,-0.004677194,0.999851751
1719786228,1719786227,821571436,0,-0.001065264,-0.001065264,0.22026543,-0.004788379,9.825753516,1719786229,2444,1719786228,924877000,world,-2.074282341,-1.915790504,0.136771382,0.013124198,-0.010152229,-0.004692909,0.999851321
1719786228,1719786227,829104206,-0.002130529,-0.001065264,-0.001065264,0.225053809,-0.004788379,9.830541895,1719786229,2445,1719786228,934904000,world,-2.074283944,-1.915773464,0.136757583,0.01312241,-0.010153954,-0.004686906,0.999851355
1719786228,1719786227,836569648,0.003195793,-0.001065264,-0.001065264,0.229842188,0,9.830541895,1719786229,2446,1719786228,944222000,world,-2.07428021,-1.915772884,0.136741038,0.013147485,-0.01011815,-0.00468526,0.999851396
1719786228,1719786227,844069010,0,-0.002130529,-0.001065264,0.215477051,0,9.835330273,1719786229,2447,1719786228,956444000,world,-2.074288749,-1.91579067,0.13673653,0.013139776,-0.010159371,-0.004696486,0.999851027
1719786228,1719786227,851565492,0.001065264,-0.001065264,-0.003195793,0.215477051,0.004788379,9.835330273,1719786229,2448,1719786228,964420000,world,-2.074286199,-1.915807798,0.136753671,0.013152272,-0.010166525,-0.004684683,0.999850846
1719786228,1719786227,859069494,0,-0.001065264,-0.001065264,0.215477051,0.004788379,9.830541895,1719786229,2449,1719786228,974746000,world,-2.074275589,-1.915775165,0.136751229,0.013137033,-0.010157283,-0.004686375,0.999851132
1719786228,1719786227,874071866,0.002130529,-0.003195793,-0.001065264,0.229842188,0.009576758,9.830541895,1719786229,2450,1719786228,985147000,world,-2.074269984,-1.915747699,0.136756784,0.013121711,-0.010136002,-0.004681096,0.999851574
1719786228,1719786227,881585340,-0.002130529,0,0,0.229842188,0.014365137,9.825753516,1719786229,2451,1719786228,994116000,world,-2.074273206,-1.91575852,0.13674864,0.013117589,-0.010113924,-0.004675388,0.999851878
1719786228,1719786227,889097374,-0.001065264,0,-0.001065264,0.239418945,0.014365137,9.830541895,1719786229,2452,1719786229,5129000,world,-2.074261957,-1.915784052,0.136746716,0.013136347,-0.010153128,-0.004683949,0.999851194
1719786228,1719786227,896578848,0.001065264,-0.002130529,-0.001065264,0.244207324,0.009576758,9.830541895,1719786229,2453,1719786229,19099000,world,-2.074269542,-1.915804062,0.136773416,0.013115653,-0.010171593,-0.004695683,0.999851223
1719786228,1719786227,904067843,-0.002130529,0.001065264,-0.002130529,0.234630566,0.009576758,9.830541895,1719786229,2454,1719786229,27914000,world,-2.074278749,-1.915779873,0.136795246,0.013097659,-0.010178455,-0.004694803,0.999851394
1719786228,1719786227,911576069,0,0,-0.001065264,0.229842188,0.004788379,9.825753516,1719786229,2455,1719786229,36411000,world,-2.074272827,-1.915740233,0.136798348,0.013112565,-0.010148762,-0.004706601,0.999851445
1719786228,1719786227,919063623,-0.004261058,-0.001065264,-0.001065264,0.234630566,0.004788379,9.835330273,1719786229,2456,1719786229,44577000,world,-2.074264425,-1.915727111,0.136789309,0.013129565,-0.010106955,-0.004713345,0.999851613
1719786228,1719786227,926567881,0,-0.001065264,-0.001065264,0.229842188,0.014365137,9.825753516,1719786229,2457,1719786229,55589000,world,-2.074271678,-1.915761642,0.136790468,0.013105635,-0.010113172,-0.00470835,0.999851888
1719786228,1719786227,934065387,0.001065264,0,0,0.229842188,0,9.820965137,1719786229,2458,1719786229,65606000,world,-2.074279589,-1.91576928,0.136779765,0.013119188,-0.010117842,-0.004704377,0.999851682
1719786228,1719786227,941574541,-0.001065264,0,0.001065264,0.234630566,0.004788379,9.830541895,1719786229,2459,1719786229,74633000,world,-2.074271505,-1.91577245,0.136786451,0.013092776,-0.010155043,-0.004684613,0.999851743
1719786228,1719786227,949046991,-0.002130529,-0.002130529,-0.002130529,0.239418945,0.009576758,9.835330273,1719786229,2460,1719786229,84369000,world,-2.074273653,-1.915763444,0.13679835,0.013107464,-0.010147699,-0.004698813,0.999851559
1719786228,1719786227,956565713,-0.003195793,-0.002130529,-0.001065264,0.225053809,-0.004788379,9.835330273,1719786229,2461,1719786229,94612000,world,-2.074269006,-1.91575862,0.136792029,0.013111156,-0.010111875,-0.004711195,0.999851815
1719786228,1719786227,964048915,0,-0.003195793,-0.003195793,0.225053809,0,9.830541895,1719786229,2462,1719786229,105011000,world,-2.074269568,-1.915765336,0.136779991,0.013106553,-0.010072349,-0.004688001,0.999852383
1719786228,1719786227,971563605,0,0.003195793,-0.005326322,0.22026543,0.004788379,9.825753516,1719786229,2463,1719786229,115464000,world,-2.074276812,-1.915782841,0.136776729,0.013145365,-0.010115346,-0.004706274,0.999851354
1719786228,1719786227,979071607,0.001065264,0,0.001065264,0.229842188,0,9.820965137,1719786229,2464,1719786229,124353000,world,-2.074268325,-1.915784154,0.1367883,0.013151524,-0.010129129,-0.004674879,0.999851281
1719786228,1719786227,986567193,0.001065264,-0.002130529,0,0.225053809,-0.004788379,9.816176758,1719786229,2465,1719786229,134988000,world,-2.074267752,-1.915755286,0.136785127,0.013123531,-0.010139017,-0.004699227,0.999851434
1719786228,1719786227,994038107,0.002130529,-0.002130529,-0.002130529,0.210688672,-0.004788379,9.816176758,1719786229,2466,1719786229,144506000,world,-2.074266149,-1.915749651,0.136786545,0.013175003,-0.010102611,-0.004718339,0.999851036
1719786228,1719786228,1556573,0.001065264,0,-0.003195793,0.210688672,0,9.825753516,1719786229,2467,1719786229,155139000,world,-2.074262656,-1.91577574,0.136785151,0.013112247,-0.010121019,-0.004703931,0.999851743
1719786228,1719786228,9072481,0,-0.001065264,-0.001065264,0.225053809,0,9.816176758,1719786229,2468,1719786229,165033000,world,-2.074271398,-1.915811463,0.136775758,0.013136551,-0.010123157,-0.004682329,0.999851503
1719786228,1719786228,16627397,-0.003195793,-0.001065264,0,0.22026543,0,9.816176758,1719786229,2469,1719786229,174180000,world,-2.074270681,-1.915794526,0.136764391,0.013120968,-0.01017804,-0.004700044,0.999851068
1719786228,1719786228,24041161,0.002130529,0.001065264,0,0.22026543,0.004788379,9.811388379,1719786229,2470,1719786229,184456000,world,-2.074265556,-1.915773043,0.136764092,0.013137588,-0.010169707,-0.004690062,0.999850981
1719786228,1719786228,31546829,-0.001065264,-0.001065264,-0.003195793,0.225053809,0.004788379,9.820965137,1719786229,2471,1719786229,194758000,world,-2.074264014,-1.915748748,0.136782185,0.013107783,-0.010146981,-0.004716923,0.999851477
1719786228,1719786228,39048689,0.001065264,0,0.002130529,0.234630566,0.004788379,9.830541895,1719786229,2472,1719786229,209064000,world,-2.074270081,-1.915762711,0.136793572,0.013120206,-0.010069308,-0.00471806,0.999852094
1719786228,1719786228,46550004,-0.002130529,0,-0.002130529,0.229842188,-0.004788379,9.844907031,1719786229,2473,1719786229,217559000,world,-2.07426866,-1.915794007,0.136783125,0.013124689,-0.010096586,-0.004714725,0.999851775
1719786228,1719786228,54038840,-0.002130529,-0.001065264,-0.001065264,0.229842188,0,9.825753516,1719786229,2474,1719786229,225602000,world,-2.074274347,-1.915816154,0.136780533,0.013120034,-0.010125208,-0.004704491,0.999851595
1719786228,1719786228,61553276,-0.002130529,-0.004261058,0,0.22026543,0.004788379,9.820965137,1719786229,2475,1719786229,235054000,world,-2.074271038,-1.915798727,0.136786756,0.01310352,-0.010115843,-0.004719436,0.999851836
1719786228,1719786228,69028320,0.001065264,-0.002130529,-0.002130529,0.210688672,0,9.825753516,1719786229,2476,1719786229,244413000,world,-2.074268662,-1.91575987,0.136767805,0.013092925,-0.010093213,-0.004738501,0.999852114
1719786228,1719786228,76764963,-0.001065264,0,0,0.210688672,0,9.820965137,1719786229,2477,1719786229,255078000,world,-2.074275352,-1.915757863,0.136778086,0.013097424,-0.010107001,-0.004733258,0.99985194
1719786228,1719786228,84029224,0.001065264,0,0,0.229842188,-0.004788379,9.825753516,1719786229,2478,1719786229,264565000,world,-2.074281082,-1.915772905,0.136783853,0.013086515,-0.010094412,-0.004711895,0.999852311
1719786228,1719786228,91537068,0,-0.001065264,-0.001065264,0.225053809,0,9.830541895,1719786229,2479,1719786229,275154000,world,-2.074271437,-1.915787078,0.136779335,0.013122458,-0.010081531,-0.004697362,0.999852038
1719786228,1719786228,99036048,-0.002130529,-0.002130529,-0.001065264,0.229842188,0.004788379,9.835330273,1719786229,2480,1719786229,284691000,world,-2.074273036,-1.915795848,0.136797949,0.013125849,-0.010130062,-0.004677531,0.999851596
1719786228,1719786228,106559924,0.001065264,-0.002130529,-0.001065264,0.229842188,0.009576758,9.830541895,1719786229,2481,1719786229,294253000,world,-2.074267042,-1.915777063,0.136812221,0.01310727,-0.01014171,-0.004699765,0.999851618
1719786228,1719786228,114053528,-0.001065264,0,0,0.234630566,0.009576758,9.820965137,1719786229,2482,1719786229,305190000,world,-2.074271614,-1.915735248,0.136802262,0.013118369,-0.010093621,-0.004691163,0.999851999
1719786228,1719786228,121559995,-0.001065264,0,-0.003195793,0.229842188,0,9.816176758,1719786229,2483,1719786229,314728000,world,-2.074268334,-1.915729452,0.136805979,0.013105804,-0.010091237,-0.004717143,0.999852066
1719786228,1719786228,129051167,0,-0.002130529,-0.002130529,0.229842188,0,9.820965137,1719786229,2484,1719786229,325419000,world,-2.07426668,-1.915786163,0.136827554,0.013091443,-0.010157057,-0.004686068,0.999851734
1719786228,1719786228,136541251,0,-0.002130529,0.002130529,0.225053809,0.004788379,9.835330273,1719786229,2485,1719786229,334828000,world,-2.074263275,-1.915787211,0.13680524,0.013082219,-0.010216406,-0.004677287,0.999851291
1719786228,1719786228,144036199,0.001065264,-0.002130529,-0.001065264,0.22026543,0.014365137,9.820965137,1719786229,2486,1719786229,344155000,world,-2.074256538,-1.91574965,0.136800057,0.013112358,-0.01015708,-0.004711904,0.999851338
1719786228,1719786228,151550955,-0.002130529,-0.003195793,-0.002130529,0.234630566,0.014365137,9.820965137,1719786229,2487,1719786229,355866000,world,-2.074256664,-1.915733095,0.13682247,0.013111989,-0.010121883,-0.004707631,0.99985172
1719786228,1719786228,159049327,0.003195793,-0.004261058,-0.001065264,0.210688672,0.009576758,9.820965137,1719786229,2488,1719786229,364789000,world,-2.074241702,-1.915754002,0.136835571,0.013068298,-0.010126822,-0.004702786,0.999852265
1719786228,1719786228,166576467,0.001065264,0.001065264,-0.004261058,0.22026543,0.004788379,9.825753516,1719786229,2489,1719786229,374056000,world,-2.074246958,-1.91577615,0.136823671,0.013084599,-0.010124557,-0.004693362,0.999852119
1719786228,1719786228,174082007,0,-0.001065264,-0.001065264,0.234630566,0.004788379,9.820965137,1719786229,2490,1719786229,385498000,world,-2.074249117,-1.915773592,0.13680448,0.013104387,-0.010188237,-0.00470775,0.999851145
1719786228,1719786228,181545915,0,0,-0.003195793,0.234630566,0,9.825753516,1719786229,2491,1719786229,394229000,world,-2.074246123,-1.915755487,0.136803047,0.013119725,-0.010181378,-0.004704234,0.99985103
1719786228,1719786228,189049662,0.001065264,-0.003195793,-0.002130529,0.229842188,-0.004788379,9.816176758,1719786229,2492,1719786229,405519000,world,-2.074243586,-1.915756694,0.13682344,0.013111002,-0.010146655,-0.004711281,0.999851464
1719786228,1719786228,196608642,0.001065264,0,0.001065264,0.22026543,0,9.820965137,1719786229,2493,1719786229,415135000,world,-2.074247061,-1.915771612,0.136836186,0.013085889,-0.010158845,-0.0047017,0.999851715
1719786228,1719786228,204010630,-0.003195793,0.001065264,0.001065264,0.22026543,0.014365137,9.820965137,1719786229,2494,1719786229,424165000,world,-2.074258134,-1.915786136,0.136805472,0.013087991,-0.010125022,-0.004682447,0.999852121
1719786228,1719786228,211506634,-0.001065264,-0.001065264,-0.001065264,0.22026543,0.009576758,9.816176758,1719786229,2495,1719786229,435741000,world,-2.074270037,-1.915769009,0.136796772,0.013105361,-0.010127878,-0.004678267,0.999851884
1719786228,1719786228,219022638,-0.001065264,-0.003195793,-0.001065264,0.229842188,0,9.835330273,1719786229,2496,1719786229,444172000,world,-2.074257111,-1.915731132,0.136787849,0.013135137,-0.010123579,-0.004691077,0.999851477
1719786228,1719786228,226627026,0.002130529,-0.002130529,-0.002130529,0.215477051,0,9.835330273,1719786229,2497,1719786229,455593000,world,-2.074249355,-1.915756999,0.136809972,0.013115688,-0.010114044,-0.004708681,0.999851746
1719786228,1719786228,233995958,0.002130529,-0.003195793,0,0.215477051,0.004788379,9.840118652,1719786229,2498,1719786229,464997000,world,-2.074265036,-1.915779025,0.136832172,0.013091974,-0.010089933,-0.004715214,0.999852269
1719786228,1719786228,241513370,0,0,-0.002130529,0.234630566,0.009576758,9.835330273,1719786229,2499,1719786229,474234000,world,-2.074259715,-1.915777172,0.136817722,0.013075168,-0.010101144,-0.004701528,0.99985244
1719786228,1719786228,249125245,-0.001065264,-0.002130529,-0.001065264,0.22026543,0.009576758,9.825753516,1719786229,2500,1719786229,485035000,world,-2.074257422,-1.91576535,0.136779598,0.013118984,-0.010075239,-0.004699749,0.999852136
1719786228,1719786228,256511618,0.002130529,-0.003195793,-0.004261058,0.229842188,0.009576758,9.820965137,1719786229,2501,1719786229,494482000,world,-2.074267826,-1.915778744,0.136780656,0.01312091,-0.01011215,-0.004716476,0.999851659
1719786228,1719786228,264006854,-0.003195793,-0.002130529,-0.001065264,0.225053809,0,9.820965137,1719786229,2502,1719786229,504746000,world,-2.074274323,-1.915778063,0.136805731,0.013093049,-0.010097663,-0.00469029,0.999852294
1719786228,1719786228,271509065,-0.001065264,-0.001065264,-0.002130529,0.215477051,0,9.820965137,1719786229,2503,1719786229,515414000,world,-2.074264798,-1.915772903,0.136803923,0.013104983,-0.010065325,-0.004719214,0.999852328
1719786228,1719786228,279000461,-0.001065264,0.001065264,-0.001065264,0.215477051,0.009576758,9.830541895,1719786229,2504,1719786229,524296000,world,-2.074280588,-1.915773224,0.136811295,0.013073951,-0.010070278,-0.004697172,0.999852788
1719786228,1719786228,286508145,0.001065264,-0.001065264,0,0.234630566,0.004788379,9.830541895,1719786230,2505,1719786229,534636000,world,-2.074280029,-1.915768688,0.136787434,0.013078351,-0.010141138,-0.004708891,0.999851959
1719786228,1719786228,294011925,0,-0.001065264,-0.002130529,0.234630566,-0.004788379,9.830541895,1719786230,2506,1719786229,544793000,world,-2.074284128,-1.915780675,0.136781173,0.013090102,-0.010113115,-0.004696782,0.999852146
1719786228,1719786228,301528281,-0.001065264,-0.002130529,0,0.239418945,0.009576758,9.820965137,1719786230,2507,1719786229,554848000,world,-2.074284219,-1.915793396,0.136794438,0.013098665,-0.010089832,-0.004708602,0.999852214
1719786228,1719786228,309001501,0.001065264,-0.002130529,0,0.239418945,0.014365137,9.820965137,1719786230,2508,1719786229,564462000,world,-2.074276757,-1.915799731,0.136793779,0.01309366,-0.01010637,-0.004706706,0.999852121
1719786228,1719786228,316501633,0.001065264,-0.001065264,0,0.22026543,0,9.811388379,1719786230,2509,1719786229,574301000,world,-2.074267425,-1.915793663,0.136796461,0.013102831,-0.010077703,-0.004708662,0.999852281
1719786228,1719786228,323997637,0.001065264,0,0,0.22026543,-0.004788379,9.811388379,1719786230,2510,1719786229,584711000,world,-2.07425243,-1.915775383,0.136783485,0.013114654,-0.010114817,-0.004726726,0.999851666
1719786228,1719786228,331496521,0.001065264,-0.003195793,0,0.22026543,0.009576758,9.811388379,1719786230,2511,1719786229,594987000,world,-2.07424287,-1.915807517,0.136779988,0.013101818,-0.010098241,-0.004724543,0.999852012
1719786228,1719786228,338998380,-0.001065264,-0.001065264,0,0.210688672,0.014365137,9.811388379,1719786230,2512,1719786229,605055000,world,-2.0742612,-1.915845442,0.136796338,0.013102231,-0.010088905,-0.004712731,0.999852157
1719786228,1719786228,346495984,0,0,-0.002130529,0.22026543,0.009576758,9.825753516,1719786230,2513,1719786229,614703000,world,-2.074247651,-1.915842274,0.136800293,0.01307721,-0.010078689,-0.004706488,0.999852617
1719786228,1719786228,353982004,-0.001065264,0,-0.002130529,0.210688672,0.009576758,9.825753516,1719786230,2514,1719786229,624401000,world,-2.074246459,-1.915834638,0.136791238,0.013088927,-0.010069661,-0.004731304,0.999852437
1719786228,1719786228,361498776,-0.002130529,-0.004261058,-0.001065264,0.22026543,0.009576758,9.820965137,1719786230,2515,1719786229,634741000,world,-2.074270334,-1.915799561,0.13679552,0.013112527,-0.010052716,-0.004707581,0.999852411
1719786228,1719786228,371490963,0.002130529,0,0.001065264,0.239418945,0.009576758,9.820965137,1719786230,2516,1719786229,644120000,world,-2.074274847,-1.915801793,0.136815263,0.013116421,-0.010082625,-0.004689161,0.999852145
1719786228,1719786228,376575392,0,0.001065264,0,0.234630566,0.009576758,9.820965137,1719786230,2517,1719786229,658340000,world,-2.074265317,-1.915832087,0.136810776,0.013105227,-0.010134594,-0.004704606,0.999851694
1719786228,1719786228,383986692,0,-0.002130529,-0.001065264,0.234630566,0.009576758,9.811388379,1719786230,2518,1719786229,667603000,world,-2.074264351,-1.915823914,0.136813562,0.013095258,-0.010126928,-0.004724001,0.999851811
1719786228,1719786228,391486600,-0.001065264,-0.003195793,0,0.229842188,0.009576758,9.820965137,1719786230,2519,1719786229,674484000,world,-2.074254334,-1.915799589,0.136839182,0.01309964,-0.010101034,-0.004722121,0.999852024
1719786228,1719786228,398986476,0,0,0.001065264,0.234630566,0.014365137,9.825753516,1719786230,2520,1719786229,684976000,world,-2.074238969,-1.915789065,0.136839196,0.013120104,-0.010123743,-0.004715137,0.999851559
1719786228,1719786228,406484816,0,0.001065264,-0.004261058,0.225053809,0.023941895,9.825753516,1719786230,2521,1719786229,694014000,world,-2.074235372,-1.915786829,0.136856442,0.013124667,-0.010060944,-0.004687876,0.999852261
1719786228,1719786228,413983347,-0.001065264,0.001065264,0,0.215477051,0.023941895,9.820965137,1719786230,2522,1719786229,705280000,world,-2.074252649,-1.915792689,0.136845433,0.013118849,-0.010072507,-0.004716072,0.999852089
1719786228,1719786228,421495447,-0.001065264,-0.002130529,0,0.225053809,0.019153516,9.820965137,1719786230,2523,1719786229,714908000,world,-2.074254793,-1.915832501,0.136836745,0.01311281,-0.010108989,-0.00470779,0.999851839
1719786228,1719786228,428980603,0,0.001065264,0,0.234630566,0.009576758,9.820965137,1719786230,2524,1719786229,725190000,world,-2.074247829,-1.915799963,0.136828791,0.013168946,-0.010088394,-0.004733849,0.999851186
1719786228,1719786228,436488415,-0.001065264,-0.002130529,-0.002130529,0.244207324,0.004788379,9.825753516,1719786230,2525,1719786229,735167000,world,-2.074245398,-1.915784765,0.136824052,0.01312917,-0.010076428,-0.004725402,0.99985187
1719786228,1719786228,443975683,-0.001065264,-0.002130529,-0.003195793,0.225053809,0.009576758,9.820965137,1719786230,2526,1719786229,743971000,world,-2.074255662,-1.915806598,0.136848694,0.013115085,-0.010146979,-0.004704538,0.999851439
1719786228,1719786228,451498247,-0.001065264,-0.001065264,0,0.234630566,0.009576758,9.820965137,1719786230,2527,1719786229,755963000,world,-2.074262834,-1.915822925,0.136850619,0.013130652,-0.010181805,-0.004712274,0.999850845
1719786228,1719786228,458987019,0,-0.001065264,-0.001065264,0.225053809,0,9.820965137,1719786230,2528,1719786229,768946000,world,-2.074262713,-1.915825337,0.136825515,0.013096328,-0.010155433,-0.004705386,0.999851595
1719786228,1719786228,466479151,0,-0.001065264,-0.001065264,0.22026543,0,9.825753516,1719786230,2529,1719786229,778265000,world,-2.074257851,-1.915809717,0.136843278,0.013116791,-0.010149589,-0.00472229,0.999851307
1719786228,1719786228,473998707,0,-0.001065264,0,0.215477051,0.009576758,9.820965137,1719786230,2530,1719786229,785824000,world,-2.074243677,-1.915804044,0.136843082,0.013137831,-0.010128247,-0.004729252,0.999851214
1719786228,1719786228,481499862,0.004261058,-0.002130529,-0.002130529,0.210688672,0.004788379,9.816176758,1719786230,2531,1719786229,794605000,world,-2.074257683,-1.915782063,0.136830165,0.013117239,-0.010119217,-0.0047121,0.999851657
1719786228,1719786228,488988026,0.001065264,0,-0.002130529,0.225053809,0.004788379,9.811388379,1719786230,2532,1719786229,805704000,world,-2.0742577,-1.915797284,0.136839655,0.01309324,-0.010122037,-0.004723315,0.99985189
1719786228,1719786228,496491198,-0.005326322,0.002130529,-0.002130529,0.22026543,0.004788379,9.8066,1719786230,2533,1719786229,814806000,world,-2.074256899,-1.915814867,0.136853563,0.013103842,-0.010167008,-0.004708521,0.999851365
1719786229,1719786228,503980546,-0.003195793,0.001065264,-0.003195793,0.225053809,0.009576758,9.816176758,1719786230,2534,1719786229,824195000,world,-2.074244489,-1.915773755,0.1368277,0.013144905,-0.010152488,-0.004697389,0.999851025
